id,itemTime,language,trial,antonymPair,scenarioLabel,expressionLabel,expression,predicateType,minValue,maxValue,startingValue,answer,naturalness,RT,engagement,difficulty,comments
A3LKPARORDKLWT:3RWE2M8QWII9O60DB6E5EHTNA0ON0O,1459374114032,english,1,fast,car,neither P nor not-P,neither fast nor not fast,stage,0,120,79,40,2,14209,5,2,
A3LKPARORDKLWT:3RWE2M8QWII9O60DB6E5EHTNA0ON0O,1459374124493,english,2,full,band,P and not-P,full and not full,stage,0,1200,1047,1200,1,10458,5,2,
A3LKPARORDKLWT:3RWE2M8QWII9O60DB6E5EHTNA0ON0O,1459374131762,english,3,long,movie,neither P nor Q,neither long nor short,individual,50,240,239,90,6,7269,5,2,
A3LKPARORDKLWT:3RWE2M8QWII9O60DB6E5EHTNA0ON0O,1459374142439,english,4,hot,bath,Q,cold,stage,32,212,98,57,5,10675,5,2,
A3LKPARORDKLWT:3RWE2M8QWII9O60DB6E5EHTNA0ON0O,1459374147335,english,5,tall,US male,neither Q nor not-Q,neither short nor not short,individual,48,96,83,71,3,4895,5,2,
A3LKPARORDKLWT:3RWE2M8QWII9O60DB6E5EHTNA0ON0O,1459374154882,english,6,expensive,laptop,not-Q,not cheap,individual,50,4000,1381,1131,6,7545,5,2,
A1K8QNLYYYX21W:37Z929RLGAG7KSP9H4J1XM5YU8JST3,1459273171951,English,1,long,movie,Q,short,individual,50,240,170,70,7,12472,4,0,"Good luck with your research.







"
A1K8QNLYYYX21W:37Z929RLGAG7KSP9H4J1XM5YU8JST3,1459273181582,English,2,expensive,laptop,not-P ,not expensive,individual,50,4000,3468,187,7,9628,4,0,"Good luck with your research.







"
A1K8QNLYYYX21W:37Z929RLGAG7KSP9H4J1XM5YU8JST3,1459273194526,English,3,full,band,P,full,stage,0,1200,328,1200,7,12941,4,0,"Good luck with your research.







"
A1K8QNLYYYX21W:37Z929RLGAG7KSP9H4J1XM5YU8JST3,1459273202624,English,4,fast,car,neither P nor Q,neither fast nor slow,stage,0,120,73,41,7,8096,4,0,"Good luck with your research.







"
A1K8QNLYYYX21W:37Z929RLGAG7KSP9H4J1XM5YU8JST3,1459273211012,English,5,tall,US male,Q and not-Q,short and not short,individual,48,96,94,65,6,8384,4,0,"Good luck with your research.







"
A1K8QNLYYYX21W:37Z929RLGAG7KSP9H4J1XM5YU8JST3,1459273217535,English,6,hot,bath,P and not-P,hot and not hot,stage,32,212,149,76,5,6520,4,0,"Good luck with your research.







"
A1CHC8M7CWC254:38SKSKU7R25U71E83JNW7TPURXVLI1,1459349251132,bulgarian,1,fast,car,neither P nor not-P,neither fast nor not fast,stage,0,120,102,60,6,11949,9,3,"It is probably relevant that: a) I am fluent in English despite it not being my native language, and b) I did notice that the slider was in a different place each time"
A1CHC8M7CWC254:38SKSKU7R25U71E83JNW7TPURXVLI1,1459349262279,bulgarian,2,long,movie,neither Q nor not-Q,neither short nor not short,individual,50,240,162,100,2,11145,9,3,"It is probably relevant that: a) I am fluent in English despite it not being my native language, and b) I did notice that the slider was in a different place each time"
A1CHC8M7CWC254:38SKSKU7R25U71E83JNW7TPURXVLI1,1459349278480,bulgarian,3,hot,bath,not-Q,not cold,stage,32,212,130,90,6,16199,9,3,"It is probably relevant that: a) I am fluent in English despite it not being my native language, and b) I did notice that the slider was in a different place each time"
A1CHC8M7CWC254:38SKSKU7R25U71E83JNW7TPURXVLI1,1459349289226,bulgarian,4,tall,US male,neither P nor Q,neither tall nor short,individual,48,96,86,69,3,10743,9,3,"It is probably relevant that: a) I am fluent in English despite it not being my native language, and b) I did notice that the slider was in a different place each time"
A1CHC8M7CWC254:38SKSKU7R25U71E83JNW7TPURXVLI1,1459349301899,bulgarian,5,expensive,laptop,Q,cheap,individual,50,4000,2193,448,7,12672,9,3,"It is probably relevant that: a) I am fluent in English despite it not being my native language, and b) I did notice that the slider was in a different place each time"
A1CHC8M7CWC254:38SKSKU7R25U71E83JNW7TPURXVLI1,1459349311141,bulgarian,6,full,band,not-P ,not full,stage,0,1200,488,385,7,9239,9,3,"It is probably relevant that: a) I am fluent in English despite it not being my native language, and b) I did notice that the slider was in a different place each time"
AHVTY95VEGGQ8:3OCHAWUVGPSGDQLLH5BWV3ZUQC4XKO,1459371544625,English,1,expensive,laptop,not-P ,not expensive,individual,50,4000,2103,400,6,57737,7,0,
AHVTY95VEGGQ8:3OCHAWUVGPSGDQLLH5BWV3ZUQC4XKO,1459371599856,English,2,hot,bath,neither Q nor not-Q,neither cold nor not cold,stage,32,212,118,82,1,55227,7,0,
AHVTY95VEGGQ8:3OCHAWUVGPSGDQLLH5BWV3ZUQC4XKO,1459371648950,English,3,tall,US male,neither P nor Q,neither tall nor short,individual,48,96,74,68,3,49094,7,0,
AHVTY95VEGGQ8:3OCHAWUVGPSGDQLLH5BWV3ZUQC4XKO,1459371692772,English,4,long,movie,Q and not-Q,short and not short,individual,50,240,91,85,1,43822,7,0,
AHVTY95VEGGQ8:3OCHAWUVGPSGDQLLH5BWV3ZUQC4XKO,1459371717457,English,5,full,band,P and not-P,full and not full,stage,0,1200,760,1111,1,24685,7,0,
AHVTY95VEGGQ8:3OCHAWUVGPSGDQLLH5BWV3ZUQC4XKO,1459371741461,English,6,fast,car,Q,slow,stage,0,120,107,20,6,24002,7,0,
A28PZF7KB8FL7Z:379J5II41POIRWCM70X5MER2Z60EL1,1459376318105,English,1,expensive,laptop,neither Q nor not-Q,neither cheap nor not cheap,individual,50,4000,2533,1076,3,25557,10,0,
A28PZF7KB8FL7Z:379J5II41POIRWCM70X5MER2Z60EL1,1459376346401,English,2,fast,car,not-P ,not fast,stage,0,120,0,30,7,28292,10,0,
A28PZF7KB8FL7Z:379J5II41POIRWCM70X5MER2Z60EL1,1459376361517,English,3,tall,US male,Q,short,individual,48,96,68,63,7,15113,10,0,
A28PZF7KB8FL7Z:379J5II41POIRWCM70X5MER2Z60EL1,1459376383004,English,4,long,movie,Q and not-Q,short and not short,individual,50,240,132,88,5,21484,10,0,
A28PZF7KB8FL7Z:379J5II41POIRWCM70X5MER2Z60EL1,1459376399392,English,5,full,band,neither P nor not-P,neither full nor not full,stage,0,1200,261,321,4,16385,10,0,
A28PZF7KB8FL7Z:379J5II41POIRWCM70X5MER2Z60EL1,1459376428483,English,6,hot,bath,not-Q,not cold,stage,32,212,77,75,6,29087,10,0,
AU849EHZNGV2Z:31Q0U3WYDQNKSAT8RI1GWPQ7FBG17H,1459351548980,English,1,hot,bath,not-Q,not cold,stage,32,212,79,106,3,20728,9,2,This was quite enjoyable. 
AU849EHZNGV2Z:31Q0U3WYDQNKSAT8RI1GWPQ7FBG17H,1459351572124,English,2,tall,US male,Q and not-Q,short and not short,individual,48,96,94,66,2,23142,9,2,This was quite enjoyable. 
AU849EHZNGV2Z:31Q0U3WYDQNKSAT8RI1GWPQ7FBG17H,1459351599020,English,3,expensive,laptop,neither P nor not-P,neither expensive nor not expensive,individual,50,4000,3213,497,3,26895,9,2,This was quite enjoyable. 
AU849EHZNGV2Z:31Q0U3WYDQNKSAT8RI1GWPQ7FBG17H,1459351617668,English,4,fast,car,P,fast,stage,0,120,11,80,5,18647,9,2,This was quite enjoyable. 
AU849EHZNGV2Z:31Q0U3WYDQNKSAT8RI1GWPQ7FBG17H,1459351634268,English,5,long,movie,neither P nor Q,neither long nor short,individual,50,240,90,85,6,16598,9,2,This was quite enjoyable. 
AU849EHZNGV2Z:31Q0U3WYDQNKSAT8RI1GWPQ7FBG17H,1459351659431,English,6,full,band,Q,empty,stage,0,1200,1196,36,6,25162,9,2,This was quite enjoyable. 
A2ABSQBRUAUS4C:3IQ1VMJRYUSK0HU12YSTLMAGEVA9AP,1459349910414,english,1,fast,car,P and not-P,fast and not fast,stage,0,120,46,34,1,19507,5,3,
A2ABSQBRUAUS4C:3IQ1VMJRYUSK0HU12YSTLMAGEVA9AP,1459349931134,english,2,tall,US male,neither Q nor not-Q,neither short nor not short,individual,48,96,84,67,1,20712,5,3,
A2ABSQBRUAUS4C:3IQ1VMJRYUSK0HU12YSTLMAGEVA9AP,1459349950286,english,3,full,band,Q,empty,stage,0,1200,413,85,5,19144,5,3,
A2ABSQBRUAUS4C:3IQ1VMJRYUSK0HU12YSTLMAGEVA9AP,1459349964575,english,4,hot,bath,P,hot,stage,32,212,198,112,7,14285,5,3,
A2ABSQBRUAUS4C:3IQ1VMJRYUSK0HU12YSTLMAGEVA9AP,1459349985806,english,5,expensive,laptop,not-P ,not expensive,individual,50,4000,947,236,7,21227,5,3,
A2ABSQBRUAUS4C:3IQ1VMJRYUSK0HU12YSTLMAGEVA9AP,1459350014838,english,6,long,movie,neither P nor not-P,neither long nor not long,individual,50,240,140,111,2,29027,5,3,
A2AK649KPZ2IZN:3TVSS0C0E280R96I19T2UB8J0LEWTL,1459346106116,English,1,long,movie,P,long,individual,50,240,150,169,7,14469,7,2,
A2AK649KPZ2IZN:3TVSS0C0E280R96I19T2UB8J0LEWTL,1459346117145,English,2,expensive,laptop,not-P ,not expensive,individual,50,4000,2442,482,6,11023,7,2,
A2AK649KPZ2IZN:3TVSS0C0E280R96I19T2UB8J0LEWTL,1459346126458,English,3,tall,US male,neither Q nor not-Q,neither short nor not short,individual,48,96,68,69,5,9307,7,2,
A2AK649KPZ2IZN:3TVSS0C0E280R96I19T2UB8J0LEWTL,1459346141407,English,4,full,band,neither P nor not-P,neither full nor not full,stage,0,1200,308,845,2,14943,7,2,
A2AK649KPZ2IZN:3TVSS0C0E280R96I19T2UB8J0LEWTL,1459346150810,English,5,hot,bath,not-Q,not cold,stage,32,212,122,118,5,9398,7,2,
A2AK649KPZ2IZN:3TVSS0C0E280R96I19T2UB8J0LEWTL,1459346158867,English,6,fast,car,Q,slow,stage,0,120,56,31,6,8050,7,2,
A3S6F0CJF5HEVX:3SKRO2GZ72Z8NP0SACQP0UVTLXWK1Q,1459380813402,English,1,full,band,Q and not-Q,empty and not empty,stage,0,1200,282,200,2,29145,10,0,
A3S6F0CJF5HEVX:3SKRO2GZ72Z8NP0SACQP0UVTLXWK1Q,1459380834113,English,2,hot,bath,neither P nor not-P,neither hot nor not hot,stage,32,212,200,90,6,20710,10,0,
A3S6F0CJF5HEVX:3SKRO2GZ72Z8NP0SACQP0UVTLXWK1Q,1459380850238,English,3,fast,car,Q,slow,stage,0,120,40,15,7,16124,10,0,
A3S6F0CJF5HEVX:3SKRO2GZ72Z8NP0SACQP0UVTLXWK1Q,1459380871576,English,4,expensive,laptop,P,expensive,individual,50,4000,3584,2507,7,21337,10,0,
A3S6F0CJF5HEVX:3SKRO2GZ72Z8NP0SACQP0UVTLXWK1Q,1459380887187,English,5,tall,US male,neither P nor Q,neither tall nor short,individual,48,96,57,70,3,15609,10,0,
A3S6F0CJF5HEVX:3SKRO2GZ72Z8NP0SACQP0UVTLXWK1Q,1459380896937,English,6,long,movie,not-P ,not long,individual,50,240,63,90,6,9749,10,0,
AFJBQWD8JSC38:3Q5C1WP23N9556FP3PMJY5CBO7051P,1459379625103,English,1,hot,bath,Q,cold,stage,32,212,98,60,3,27726,5,1,Interesting study on our perceptions.... thank you!
AFJBQWD8JSC38:3Q5C1WP23N9556FP3PMJY5CBO7051P,1459379646790,English,2,expensive,laptop,neither P nor not-P,neither expensive nor not expensive,individual,50,4000,884,308,1,21684,5,1,Interesting study on our perceptions.... thank you!
AFJBQWD8JSC38:3Q5C1WP23N9556FP3PMJY5CBO7051P,1459379678871,English,3,full,band,neither P nor Q,neither full nor empty,stage,0,1200,224,600,1,32081,5,1,Interesting study on our perceptions.... thank you!
AFJBQWD8JSC38:3Q5C1WP23N9556FP3PMJY5CBO7051P,1459379690882,English,4,tall,US male,Q and not-Q,short and not short,individual,48,96,65,66,1,12010,5,1,Interesting study on our perceptions.... thank you!
AFJBQWD8JSC38:3Q5C1WP23N9556FP3PMJY5CBO7051P,1459379701309,English,5,fast,car,not-P ,not fast,stage,0,120,118,40,1,10426,5,1,Interesting study on our perceptions.... thank you!
AFJBQWD8JSC38:3Q5C1WP23N9556FP3PMJY5CBO7051P,1459379719716,English,6,long,movie,not-Q,not short,individual,50,240,107,120,1,18406,5,1,Interesting study on our perceptions.... thank you!
A2YFPO0N4GIS25:3PMBY0YE28B8TWRZMCOKRH04EYUC9T,1459348630648,English,1,fast,car,Q and not-Q,slow and not slow,stage,0,120,76,25,3,14659,9,2,Thank you.
A2YFPO0N4GIS25:3PMBY0YE28B8TWRZMCOKRH04EYUC9T,1459348643773,English,2,tall,US male,neither Q nor not-Q,neither short nor not short,individual,48,96,51,68,5,13123,9,2,Thank you.
A2YFPO0N4GIS25:3PMBY0YE28B8TWRZMCOKRH04EYUC9T,1459348652066,English,3,hot,bath,not-P ,not hot,stage,32,212,141,90,7,8291,9,2,Thank you.
A2YFPO0N4GIS25:3PMBY0YE28B8TWRZMCOKRH04EYUC9T,1459348670956,English,4,full,band,neither P nor Q,neither full nor empty,stage,0,1200,1013,800,6,18889,9,2,Thank you.
A2YFPO0N4GIS25:3PMBY0YE28B8TWRZMCOKRH04EYUC9T,1459348685142,English,5,expensive,laptop,not-Q,not cheap,individual,50,4000,3990,2604,7,14184,9,2,Thank you.
A2YFPO0N4GIS25:3PMBY0YE28B8TWRZMCOKRH04EYUC9T,1459348696174,English,6,long,movie,P,long,individual,50,240,54,181,7,11030,9,2,Thank you.
A1P1LMZT6X7OIY:3MX2NQ3YCA2DV70IAI7QTEGCTMG5XI,1459380216996,English,1,tall,US male,Q,short,individual,48,96,68,65,2,33087,10,6,
A1P1LMZT6X7OIY:3MX2NQ3YCA2DV70IAI7QTEGCTMG5XI,1459380251097,English,2,expensive,laptop,neither P nor Q,neither expensive nor cheap,individual,50,4000,3972,806,7,34099,10,6,
A1P1LMZT6X7OIY:3MX2NQ3YCA2DV70IAI7QTEGCTMG5XI,1459380281848,English,3,fast,car,P,fast,stage,0,120,31,78,3,30749,10,6,
A1P1LMZT6X7OIY:3MX2NQ3YCA2DV70IAI7QTEGCTMG5XI,1459380311720,English,4,long,movie,Q and not-Q,short and not short,individual,50,240,150,105,1,29869,10,6,
A1P1LMZT6X7OIY:3MX2NQ3YCA2DV70IAI7QTEGCTMG5XI,1459380333095,English,5,full,band,not-Q,not empty,stage,0,1200,271,426,1,21374,10,6,
A1P1LMZT6X7OIY:3MX2NQ3YCA2DV70IAI7QTEGCTMG5XI,1459380354055,English,6,hot,bath,neither P nor not-P,neither hot nor not hot,stage,32,212,47,82,1,20957,10,6,
A24RTVFQXN525E:36V4Q8R5ZL8RUHKCG3TKG8V5IEKQMX,1459383957551,english,1,full,band,neither P nor not-P,neither full nor not full,stage,0,1200,125,600,1,41206,3,0,
A24RTVFQXN525E:36V4Q8R5ZL8RUHKCG3TKG8V5IEKQMX,1459383977979,english,2,hot,bath,P,hot,stage,32,212,149,98,1,20425,3,0,
A24RTVFQXN525E:36V4Q8R5ZL8RUHKCG3TKG8V5IEKQMX,1459384008956,english,3,expensive,laptop,not-Q,not cheap,individual,50,4000,1846,1395,7,30975,3,0,
A24RTVFQXN525E:36V4Q8R5ZL8RUHKCG3TKG8V5IEKQMX,1459384030025,english,4,tall,US male,neither P nor Q,neither tall nor short,individual,48,96,94,70,7,21067,3,0,
A24RTVFQXN525E:36V4Q8R5ZL8RUHKCG3TKG8V5IEKQMX,1459384055033,english,5,long,movie,P and not-P,long and not long,individual,50,240,223,102,7,25005,3,0,
A24RTVFQXN525E:36V4Q8R5ZL8RUHKCG3TKG8V5IEKQMX,1459384067913,english,6,fast,car,Q,slow,stage,0,120,85,20,7,12879,3,0,
A3HBMPB74FWI1:32KTQ2V7RENL2I3QZ1IYUD5G8CY9M8,1459348723768,English,1,fast,car,P,fast,stage,0,120,99,94,6,2480,5,6,
A3HBMPB74FWI1:32KTQ2V7RENL2I3QZ1IYUD5G8CY9M8,1459348725871,English,2,full,band,neither Q nor not-Q,neither empty nor not empty,stage,0,1200,170,503,6,2098,5,6,
A3HBMPB74FWI1:32KTQ2V7RENL2I3QZ1IYUD5G8CY9M8,1459348727617,English,3,long,movie,neither P nor not-P,neither long nor not long,individual,50,240,200,177,5,1745,5,6,
A3HBMPB74FWI1:32KTQ2V7RENL2I3QZ1IYUD5G8CY9M8,1459348729640,English,4,hot,bath,P and not-P,hot and not hot,stage,32,212,54,191,6,2021,5,6,
A3HBMPB74FWI1:32KTQ2V7RENL2I3QZ1IYUD5G8CY9M8,1459348733677,English,5,expensive,laptop,not-Q,not cheap,individual,50,4000,3459,2081,6,4036,5,6,
A3HBMPB74FWI1:32KTQ2V7RENL2I3QZ1IYUD5G8CY9M8,1459348738007,English,6,tall,US male,neither P nor Q,neither tall nor short,individual,48,96,95,62,4,4329,5,6,
A1F48KQEBOLPUW:3WS1NTTKEZKX0ENWDIVS6CKE87T0FH,1459349016886,english,1,fast,car,Q and not-Q,slow and not slow,stage,0,120,37,17,1,16222,10,2,
A1F48KQEBOLPUW:3WS1NTTKEZKX0ENWDIVS6CKE87T0FH,1459349028066,english,2,full,band,P,full,stage,0,1200,504,1200,7,11178,10,2,
A1F48KQEBOLPUW:3WS1NTTKEZKX0ENWDIVS6CKE87T0FH,1459349041451,english,3,expensive,laptop,not-P ,not expensive,individual,50,4000,1109,298,7,13385,10,2,
A1F48KQEBOLPUW:3WS1NTTKEZKX0ENWDIVS6CKE87T0FH,1459349059596,english,4,hot,bath,neither Q nor not-Q,neither cold nor not cold,stage,32,212,129,74,2,18144,10,2,
A1F48KQEBOLPUW:3WS1NTTKEZKX0ENWDIVS6CKE87T0FH,1459349075313,english,5,tall,US male,not-Q,not short,individual,48,96,84,72,7,15716,10,2,
A1F48KQEBOLPUW:3WS1NTTKEZKX0ENWDIVS6CKE87T0FH,1459349090213,english,6,long,movie,neither P nor not-P,neither long nor not long,individual,50,240,94,110,1,14899,10,2,
A321AGEY23DDEH:31HQ4X3T3TIJ1FH48VHABVVH0VXSL0,1459348680453,English,1,tall,US male,neither Q nor not-Q,neither short nor not short,individual,48,96,57,68,6,11735,8,1,
A321AGEY23DDEH:31HQ4X3T3TIJ1FH48VHABVVH0VXSL0,1459348687923,English,2,long,movie,not-Q,not short,individual,50,240,60,180,7,7467,8,1,
A321AGEY23DDEH:31HQ4X3T3TIJ1FH48VHABVVH0VXSL0,1459348696731,English,3,fast,car,not-P ,not fast,stage,0,120,29,40,7,8805,8,1,
A321AGEY23DDEH:31HQ4X3T3TIJ1FH48VHABVVH0VXSL0,1459348709089,English,4,full,band,P and not-P,full and not full,stage,0,1200,602,956,4,12356,8,1,
A321AGEY23DDEH:31HQ4X3T3TIJ1FH48VHABVVH0VXSL0,1459348721912,English,5,hot,bath,neither P nor Q,neither hot nor cold,stage,32,212,81,104,7,12821,8,1,
A321AGEY23DDEH:31HQ4X3T3TIJ1FH48VHABVVH0VXSL0,1459348732786,English,6,expensive,laptop,Q,cheap,individual,50,4000,1880,238,7,10872,8,1,
A2QX2B50DM45E2:3W92K5RLWVPLRIVNA3685TJRD9RV5K,1459348687713,English,1,tall,US male,not-Q,not short,individual,48,96,71,78,6,13249,5,5,
A2QX2B50DM45E2:3W92K5RLWVPLRIVNA3685TJRD9RV5K,1459348698070,English,2,long,movie,Q,short,individual,50,240,81,118,7,10356,5,5,
A2QX2B50DM45E2:3W92K5RLWVPLRIVNA3685TJRD9RV5K,1459348710424,English,3,full,band,not-P ,not full,stage,0,1200,266,627,5,12354,5,5,
A2QX2B50DM45E2:3W92K5RLWVPLRIVNA3685TJRD9RV5K,1459348719577,English,4,fast,car,P and not-P,fast and not fast,stage,0,120,64,58,2,9151,5,5,
A2QX2B50DM45E2:3W92K5RLWVPLRIVNA3685TJRD9RV5K,1459348729790,English,5,hot,bath,neither P nor not-P,neither hot nor not hot,stage,32,212,127,125,1,10213,5,5,
A2QX2B50DM45E2:3W92K5RLWVPLRIVNA3685TJRD9RV5K,1459348746826,English,6,expensive,laptop,neither P nor Q,neither expensive nor cheap,individual,50,4000,1361,2030,2,17035,5,5,
A29RJVVL54THB5:3L6L49WXW15MX5C8Q75LW3JE0R554X,1459370861798,English,1,fast,car,Q,slow,stage,0,120,46,18,7,12931,10,0,Interesting study
A29RJVVL54THB5:3L6L49WXW15MX5C8Q75LW3JE0R554X,1459370875538,English,2,expensive,laptop,neither Q nor not-Q,neither cheap nor not cheap,individual,50,4000,3598,590,6,13737,10,0,Interesting study
A29RJVVL54THB5:3L6L49WXW15MX5C8Q75LW3JE0R554X,1459370884703,English,3,hot,bath,neither P nor Q,neither hot nor cold,stage,32,212,45,57,6,9162,10,0,Interesting study
A29RJVVL54THB5:3L6L49WXW15MX5C8Q75LW3JE0R554X,1459370894370,English,4,long,movie,neither P nor not-P,neither long nor not long,individual,50,240,178,138,6,9664,10,0,Interesting study
A29RJVVL54THB5:3L6L49WXW15MX5C8Q75LW3JE0R554X,1459370901748,English,5,tall,US male,not-P ,not tall,individual,48,96,77,62,7,7376,10,0,Interesting study
A29RJVVL54THB5:3L6L49WXW15MX5C8Q75LW3JE0R554X,1459370912395,English,6,full,band,P,full,stage,0,1200,1180,1119,6,10642,10,0,Interesting study
A3VP27UUQ34OXK:3SITXWYCNWHFKNHRBSY3W0G43IVXB4,1459371317713,English,1,fast,car,Q,slow,stage,0,120,74,25,6,19470,5,5,no
A3VP27UUQ34OXK:3SITXWYCNWHFKNHRBSY3W0G43IVXB4,1459371334664,English,2,expensive,laptop,Q and not-Q,cheap and not cheap,individual,50,4000,3979,302,2,16945,5,5,no
A3VP27UUQ34OXK:3SITXWYCNWHFKNHRBSY3W0G43IVXB4,1459371349166,English,3,long,movie,not-P ,not long,individual,50,240,79,80,7,14498,5,5,no
A3VP27UUQ34OXK:3SITXWYCNWHFKNHRBSY3W0G43IVXB4,1459371367654,English,4,full,band,neither P nor Q,neither full nor empty,stage,0,1200,848,74,4,18484,5,5,no
A3VP27UUQ34OXK:3SITXWYCNWHFKNHRBSY3W0G43IVXB4,1459371386456,English,5,hot,bath,P and not-P,hot and not hot,stage,32,212,119,70,1,18798,5,5,no
A3VP27UUQ34OXK:3SITXWYCNWHFKNHRBSY3W0G43IVXB4,1459371397399,English,6,tall,US male,not-Q,not short,individual,48,96,77,72,7,10934,5,5,no
AU6ZURVHX4KPT:31EUONYN2WB7ZS15FI27EZJIU4XOVJ,1459351230379,English,1,tall,US male,Q and not-Q,short and not short,individual,48,96,50,69,5,12747,4,5,no
AU6ZURVHX4KPT:31EUONYN2WB7ZS15FI27EZJIU4XOVJ,1459351248954,English,2,expensive,laptop,neither Q nor not-Q,neither cheap nor not cheap,individual,50,4000,2397,386,1,18567,4,5,no
AU6ZURVHX4KPT:31EUONYN2WB7ZS15FI27EZJIU4XOVJ,1459351264801,English,3,full,band,Q,empty,stage,0,1200,924,285,7,15843,4,5,no
AU6ZURVHX4KPT:31EUONYN2WB7ZS15FI27EZJIU4XOVJ,1459351280346,English,4,fast,car,not-Q,not slow,stage,0,120,37,52,3,15542,4,5,no
AU6ZURVHX4KPT:31EUONYN2WB7ZS15FI27EZJIU4XOVJ,1459351291521,English,5,long,movie,not-P ,not long,individual,50,240,72,76,6,11172,4,5,no
AU6ZURVHX4KPT:31EUONYN2WB7ZS15FI27EZJIU4XOVJ,1459351310026,English,6,hot,bath,P and not-P,hot and not hot,stage,32,212,178,101,3,18502,4,5,no
A4M2EA2J10E7K:3URFVVM166QJLHQCC13JYBO3031UZG,1459372447522,English,1,fast,car,not-Q,not slow,stage,0,120,85,70,4,26362,9,4,-
A4M2EA2J10E7K:3URFVVM166QJLHQCC13JYBO3031UZG,1459372468154,English,2,expensive,laptop,not-P ,not expensive,individual,50,4000,1707,252,7,20630,9,4,-
A4M2EA2J10E7K:3URFVVM166QJLHQCC13JYBO3031UZG,1459372495694,English,3,full,band,neither P nor Q,neither full nor empty,stage,0,1200,464,604,5,27539,9,4,-
A4M2EA2J10E7K:3URFVVM166QJLHQCC13JYBO3031UZG,1459372532639,English,4,long,movie,neither Q nor not-Q,neither short nor not short,individual,50,240,224,111,2,36945,9,4,-
A4M2EA2J10E7K:3URFVVM166QJLHQCC13JYBO3031UZG,1459372554689,English,5,tall,US male,Q and not-Q,short and not short,individual,48,96,53,67,1,22049,9,4,-
A4M2EA2J10E7K:3URFVVM166QJLHQCC13JYBO3031UZG,1459372581385,English,6,hot,bath,neither P nor not-P,neither hot nor not hot,stage,32,212,70,99,1,26696,9,4,-
A1WDUICI1FG9F:3483FV8BEFR8DVXZRCW2VU0GC8K26E,1459370760845,English,1,full,band,P,full,stage,0,1200,1060,1200,7,10452,7,3,
A1WDUICI1FG9F:3483FV8BEFR8DVXZRCW2VU0GC8K26E,1459370772307,English,2,hot,bath,neither P nor not-P,neither hot nor not hot,stage,32,212,164,85,7,11458,7,3,
A1WDUICI1FG9F:3483FV8BEFR8DVXZRCW2VU0GC8K26E,1459370780930,English,3,tall,US male,neither P nor Q,neither tall nor short,individual,48,96,49,68,7,8621,7,3,
A1WDUICI1FG9F:3483FV8BEFR8DVXZRCW2VU0GC8K26E,1459370787106,English,4,fast,car,not-P ,not fast,stage,0,120,18,55,7,6174,7,3,
A1WDUICI1FG9F:3483FV8BEFR8DVXZRCW2VU0GC8K26E,1459370796170,English,5,expensive,laptop,Q,cheap,individual,50,4000,2610,400,7,9061,7,3,
A1WDUICI1FG9F:3483FV8BEFR8DVXZRCW2VU0GC8K26E,1459370802050,English,6,long,movie,not-Q,not short,individual,50,240,71,130,6,5879,7,3,
A2VDCUHGOZTL8R:3IX2EGZR7CR15ATRQL5S56DTA48JR0,1459347902253,english,1,long,movie,neither P nor not-P,neither long nor not long,individual,50,240,205,130,7,23587,6,7,
A2VDCUHGOZTL8R:3IX2EGZR7CR15ATRQL5S56DTA48JR0,1459347914244,english,2,tall,US male,Q and not-Q,short and not short,individual,48,96,93,70,7,11977,6,7,
A2VDCUHGOZTL8R:3IX2EGZR7CR15ATRQL5S56DTA48JR0,1459347928142,english,3,full,band,P and not-P,full and not full,stage,0,1200,1175,907,7,13891,6,7,
A2VDCUHGOZTL8R:3IX2EGZR7CR15ATRQL5S56DTA48JR0,1459347939581,english,4,fast,car,neither P nor Q,neither fast nor slow,stage,0,120,82,40,7,11430,6,7,
A2VDCUHGOZTL8R:3IX2EGZR7CR15ATRQL5S56DTA48JR0,1459347954680,english,5,expensive,laptop,not-Q,not cheap,individual,50,4000,3850,1131,7,15088,6,7,
A2VDCUHGOZTL8R:3IX2EGZR7CR15ATRQL5S56DTA48JR0,1459347971346,english,6,hot,bath,Q,cold,stage,32,212,120,70,6,16647,6,7,
A3UV55HC87DO9C:3V0Z7YWSIZ8TSLC0SK4A7MGFT1AV2X,1459371425244,English,1,expensive,laptop,neither P nor not-P,neither expensive nor not expensive,individual,50,4000,1203,755,2,22076,10,0,
A3UV55HC87DO9C:3V0Z7YWSIZ8TSLC0SK4A7MGFT1AV2X,1459371437934,English,2,long,movie,not-P ,not long,individual,50,240,185,130,6,12688,10,0,
A3UV55HC87DO9C:3V0Z7YWSIZ8TSLC0SK4A7MGFT1AV2X,1459371453344,English,3,fast,car,neither Q nor not-Q,neither slow nor not slow,stage,0,120,82,55,3,15409,10,0,
A3UV55HC87DO9C:3V0Z7YWSIZ8TSLC0SK4A7MGFT1AV2X,1459371466687,English,4,hot,bath,Q and not-Q,cold and not cold,stage,32,212,108,64,2,13342,10,0,
A3UV55HC87DO9C:3V0Z7YWSIZ8TSLC0SK4A7MGFT1AV2X,1459371480656,English,5,full,band,P,full,stage,0,1200,2,201,6,13967,10,0,
A3UV55HC87DO9C:3V0Z7YWSIZ8TSLC0SK4A7MGFT1AV2X,1459371492586,English,6,tall,US male,P and not-P,tall and not tall,individual,48,96,70,69,2,11928,10,0,
AU7RK2T2CMUBV:3K4J6M3CXF1ZFRH9G4Y3D3W3IAFAGV,1459371051808,english,1,fast,car,not-Q,not slow,stage,0,120,15,45,3,29404,9,3,
AU7RK2T2CMUBV:3K4J6M3CXF1ZFRH9G4Y3D3W3IAFAGV,1459371081223,english,2,long,movie,neither Q nor not-Q,neither short nor not short,individual,50,240,77,120,5,29413,9,3,
AU7RK2T2CMUBV:3K4J6M3CXF1ZFRH9G4Y3D3W3IAFAGV,1459371113775,english,3,full,band,Q and not-Q,empty and not empty,stage,0,1200,541,521,1,32551,9,3,
AU7RK2T2CMUBV:3K4J6M3CXF1ZFRH9G4Y3D3W3IAFAGV,1459371135135,english,4,expensive,laptop,P,expensive,individual,50,4000,3137,2525,7,21359,9,3,
AU7RK2T2CMUBV:3K4J6M3CXF1ZFRH9G4Y3D3W3IAFAGV,1459371156886,english,5,tall,US male,Q,short,individual,48,96,54,65,7,21750,9,3,
AU7RK2T2CMUBV:3K4J6M3CXF1ZFRH9G4Y3D3W3IAFAGV,1459371172223,english,6,hot,bath,neither P nor not-P,neither hot nor not hot,stage,32,212,104,90,1,15336,9,3,
A1BHINLXH3E2GJ:3C2NJ6JBKBPGKG3RQTIJX5M27Y92NO,1459372233455,english,1,fast,car,Q,slow,stage,0,120,101,15,5,27483,7,2,
A1BHINLXH3E2GJ:3C2NJ6JBKBPGKG3RQTIJX5M27Y92NO,1459372253007,english,2,tall,US male,Q and not-Q,short and not short,individual,48,96,60,67,7,19552,7,2,
A1BHINLXH3E2GJ:3C2NJ6JBKBPGKG3RQTIJX5M27Y92NO,1459372268454,english,3,hot,bath,P and not-P,hot and not hot,stage,32,212,117,83,7,15447,7,2,
A1BHINLXH3E2GJ:3C2NJ6JBKBPGKG3RQTIJX5M27Y92NO,1459372298969,english,4,expensive,laptop,not-P ,not expensive,individual,50,4000,109,182,7,30515,7,2,
A1BHINLXH3E2GJ:3C2NJ6JBKBPGKG3RQTIJX5M27Y92NO,1459372323309,english,5,full,band,neither P nor not-P,neither full nor not full,stage,0,1200,673,600,3,24340,7,2,
A1BHINLXH3E2GJ:3C2NJ6JBKBPGKG3RQTIJX5M27Y92NO,1459372336823,english,6,long,movie,not-Q,not short,individual,50,240,143,141,6,13514,7,2,
AL5ERA3MBN2U3:3QBD8R3Z22R85FIQVM1K59J5HMMO4X,1459398941909,English,1,long,movie,Q,short,individual,50,240,217,70,6,19152,10,3,
AL5ERA3MBN2U3:3QBD8R3Z22R85FIQVM1K59J5HMMO4X,1459398962154,English,2,fast,car,P and not-P,fast and not fast,stage,0,120,81,69,2,20237,10,3,
AL5ERA3MBN2U3:3QBD8R3Z22R85FIQVM1K59J5HMMO4X,1459398987902,English,3,full,band,not-P ,not full,stage,0,1200,239,468,4,25739,10,3,
AL5ERA3MBN2U3:3QBD8R3Z22R85FIQVM1K59J5HMMO4X,1459399010004,English,4,expensive,laptop,neither Q nor not-Q,neither cheap nor not cheap,individual,50,4000,3812,842,2,22095,10,3,
AL5ERA3MBN2U3:3QBD8R3Z22R85FIQVM1K59J5HMMO4X,1459399023825,English,5,hot,bath,neither P nor Q,neither hot nor cold,stage,32,212,159,98,4,13804,10,3,
AL5ERA3MBN2U3:3QBD8R3Z22R85FIQVM1K59J5HMMO4X,1459399038098,English,6,tall,US male,P,tall,individual,48,96,75,74,7,14253,10,3,
A26TY8FHMJ183C:3NJM2BJS4XETLJ7631KHD70JJ4SPCL,1459379463439,English,1,tall,US male,P,tall,individual,48,96,59,77,7,8943,7,0,
A26TY8FHMJ183C:3NJM2BJS4XETLJ7631KHD70JJ4SPCL,1459379473840,English,2,long,movie,not-P ,not long,individual,50,240,105,90,4,10400,7,0,
A26TY8FHMJ183C:3NJM2BJS4XETLJ7631KHD70JJ4SPCL,1459379490393,English,3,fast,car,not-Q,not slow,stage,0,120,46,78,1,16553,7,0,
A26TY8FHMJ183C:3NJM2BJS4XETLJ7631KHD70JJ4SPCL,1459379502057,English,4,expensive,laptop,Q,cheap,individual,50,4000,1501,451,6,11664,7,0,
A26TY8FHMJ183C:3NJM2BJS4XETLJ7631KHD70JJ4SPCL,1459379514315,English,5,hot,bath,neither Q nor not-Q,neither cold nor not cold,stage,32,212,51,75,1,12257,7,0,
A26TY8FHMJ183C:3NJM2BJS4XETLJ7631KHD70JJ4SPCL,1459379524651,English,6,full,band,P and not-P,full and not full,stage,0,1200,1121,537,1,10336,7,0,
A2NFKOH8HAAL1P:37WLF8U1WQY3UB1PGI26VQMAT8G6KE,1459391531381,English,1,hot,bath,not-P ,not hot,stage,32,212,170,110,5,27235,10,1,
A2NFKOH8HAAL1P:37WLF8U1WQY3UB1PGI26VQMAT8G6KE,1459391551510,English,2,fast,car,neither P nor not-P,neither fast nor not fast,stage,0,120,18,43,2,20123,10,1,
A2NFKOH8HAAL1P:37WLF8U1WQY3UB1PGI26VQMAT8G6KE,1459391570165,English,3,long,movie,Q,short,individual,50,240,180,102,7,18649,10,1,
A2NFKOH8HAAL1P:37WLF8U1WQY3UB1PGI26VQMAT8G6KE,1459391595420,English,4,expensive,laptop,not-Q,not cheap,individual,50,4000,71,996,6,25250,10,1,
A2NFKOH8HAAL1P:37WLF8U1WQY3UB1PGI26VQMAT8G6KE,1459391621541,English,5,full,band,neither P nor Q,neither full nor empty,stage,0,1200,726,621,3,26116,10,1,
A2NFKOH8HAAL1P:37WLF8U1WQY3UB1PGI26VQMAT8G6KE,1459391644443,English,6,tall,US male,P and not-P,tall and not tall,individual,48,96,55,72,1,22897,10,1,
AU7Y8NQGO8KFQ:3ZWFC4W1UVFL087V7VE7Q8L1HZCFRI,1459388490463,English,1,hot,bath,Q,cold,stage,32,212,65,95,6,47365,7,3,
AU7Y8NQGO8KFQ:3ZWFC4W1UVFL087V7VE7Q8L1HZCFRI,1459388527637,English,2,long,movie,Q and not-Q,short and not short,individual,50,240,63,90,1,37174,7,3,
AU7Y8NQGO8KFQ:3ZWFC4W1UVFL087V7VE7Q8L1HZCFRI,1459388559174,English,3,fast,car,not-P ,not fast,stage,0,120,30,31,1,31537,7,3,
AU7Y8NQGO8KFQ:3ZWFC4W1UVFL087V7VE7Q8L1HZCFRI,1459388595789,English,4,expensive,laptop,not-Q,not cheap,individual,50,4000,1122,603,6,36615,7,3,
AU7Y8NQGO8KFQ:3ZWFC4W1UVFL087V7VE7Q8L1HZCFRI,1459388636677,English,5,full,band,neither Q nor not-Q,neither empty nor not empty,stage,0,1200,436,600,1,40878,7,3,
AU7Y8NQGO8KFQ:3ZWFC4W1UVFL087V7VE7Q8L1HZCFRI,1459388661474,English,6,tall,US male,P and not-P,tall and not tall,individual,48,96,74,71,1,24787,7,3,
A3AEQ1XAW2MCD1:3WT783CTPCPRHP6WKW2GINVU20GBCP,1459384090953,English,1,expensive,laptop,P and not-P,expensive and not expensive,individual,50,4000,948,506,5,38814,6,0,"No, but thank you!"
A3AEQ1XAW2MCD1:3WT783CTPCPRHP6WKW2GINVU20GBCP,1459384110695,English,2,fast,car,neither P nor not-P,neither fast nor not fast,stage,0,120,29,45,7,19739,6,0,"No, but thank you!"
A3AEQ1XAW2MCD1:3WT783CTPCPRHP6WKW2GINVU20GBCP,1459384141009,English,3,full,band,not-P ,not full,stage,0,1200,908,250,3,30312,6,0,"No, but thank you!"
A3AEQ1XAW2MCD1:3WT783CTPCPRHP6WKW2GINVU20GBCP,1459384160055,English,4,tall,US male,Q and not-Q,short and not short,individual,48,96,73,66,6,19044,6,0,"No, but thank you!"
A3AEQ1XAW2MCD1:3WT783CTPCPRHP6WKW2GINVU20GBCP,1459384190591,English,5,long,movie,P,long,individual,50,240,82,150,3,30535,6,0,"No, but thank you!"
A3AEQ1XAW2MCD1:3WT783CTPCPRHP6WKW2GINVU20GBCP,1459384207975,English,6,hot,bath,neither P nor Q,neither hot nor cold,stage,32,212,88,76,4,17382,6,0,"No, but thank you!"
A3DRKJIAWYMA9F:3ZAK8W07I5MMJWKM87QRSCLHIU7U09,1459349369093,English,1,tall,US male,neither P nor not-P,neither tall nor not tall,individual,48,96,60,69,7,8644,7,7,
A3DRKJIAWYMA9F:3ZAK8W07I5MMJWKM87QRSCLHIU7U09,1459349378148,English,2,expensive,laptop,not-P ,not expensive,individual,50,4000,1152,355,6,9054,7,7,
A3DRKJIAWYMA9F:3ZAK8W07I5MMJWKM87QRSCLHIU7U09,1459349390697,English,3,fast,car,P,fast,stage,0,120,117,100,6,12547,7,7,
A3DRKJIAWYMA9F:3ZAK8W07I5MMJWKM87QRSCLHIU7U09,1459349403738,English,4,long,movie,neither Q nor not-Q,neither short nor not short,individual,50,240,222,95,1,13040,7,7,
A3DRKJIAWYMA9F:3ZAK8W07I5MMJWKM87QRSCLHIU7U09,1459349427694,English,5,hot,bath,not-Q,not cold,stage,32,212,54,105,7,23952,7,7,
A3DRKJIAWYMA9F:3ZAK8W07I5MMJWKM87QRSCLHIU7U09,1459349444313,English,6,full,band,neither P nor Q,neither full nor empty,stage,0,1200,1027,1200,4,16615,7,7,
AGRKG3YT3KMD8:3JV9LGBJWUMOHVBAQN3LEYG87RSGO9,1459389207923,English,1,expensive,laptop,P,expensive,individual,50,4000,3216,3000,7,16866,7,2,
AGRKG3YT3KMD8:3JV9LGBJWUMOHVBAQN3LEYG87RSGO9,1459389228883,English,2,hot,bath,neither Q nor not-Q,neither cold nor not cold,stage,32,212,116,75,2,20941,7,2,
AGRKG3YT3KMD8:3JV9LGBJWUMOHVBAQN3LEYG87RSGO9,1459389241752,English,3,long,movie,Q and not-Q,short and not short,individual,50,240,222,80,3,12861,7,2,
AGRKG3YT3KMD8:3JV9LGBJWUMOHVBAQN3LEYG87RSGO9,1459389252904,English,4,tall,US male,not-P ,not tall,individual,48,96,50,67,3,11144,7,2,
AGRKG3YT3KMD8:3JV9LGBJWUMOHVBAQN3LEYG87RSGO9,1459389267630,English,5,fast,car,Q,slow,stage,0,120,34,30,7,14717,7,2,
AGRKG3YT3KMD8:3JV9LGBJWUMOHVBAQN3LEYG87RSGO9,1459389283326,English,6,full,band,not-Q,not empty,stage,0,1200,500,600,7,15690,7,2,
A2FPCCVXZWHGZF:35H6S234SB80CSGM9VY0T13SWIB56I,1459370947032,English,1,long,movie,not-Q,not short,individual,50,240,200,192,7,22751,8,4,
A2FPCCVXZWHGZF:35H6S234SB80CSGM9VY0T13SWIB56I,1459370980951,English,2,full,band,neither Q nor not-Q,neither empty nor not empty,stage,0,1200,76,614,4,33916,8,4,
A2FPCCVXZWHGZF:35H6S234SB80CSGM9VY0T13SWIB56I,1459370992832,English,3,hot,bath,not-P ,not hot,stage,32,212,192,57,1,11880,8,4,
A2FPCCVXZWHGZF:35H6S234SB80CSGM9VY0T13SWIB56I,1459371004394,English,4,fast,car,neither P nor not-P,neither fast nor not fast,stage,0,120,19,40,6,11561,8,4,
A2FPCCVXZWHGZF:35H6S234SB80CSGM9VY0T13SWIB56I,1459371014762,English,5,tall,US male,P,tall,individual,48,96,83,74,6,10367,8,4,
A2FPCCVXZWHGZF:35H6S234SB80CSGM9VY0T13SWIB56I,1459371025488,English,6,expensive,laptop,neither P nor Q,neither expensive nor cheap,individual,50,4000,71,358,7,10725,8,4,
A2M3LVBUZLN8MO:3WAKVUDHUXO017K6T6B07RV4QAO7U1,1459378184832,English,1,fast,car,neither P nor Q,neither fast nor slow,stage,0,120,80,30,6,22372,9,2,Very interesting study!
A2M3LVBUZLN8MO:3WAKVUDHUXO017K6T6B07RV4QAO7U1,1459378198883,English,2,long,movie,P and not-P,long and not long,individual,50,240,216,90,3,14051,9,2,Very interesting study!
A2M3LVBUZLN8MO:3WAKVUDHUXO017K6T6B07RV4QAO7U1,1459378213683,English,3,expensive,laptop,neither P nor not-P,neither expensive nor not expensive,individual,50,4000,1556,404,4,14800,9,2,Very interesting study!
A2M3LVBUZLN8MO:3WAKVUDHUXO017K6T6B07RV4QAO7U1,1459378254996,English,4,full,band,neither Q nor not-Q,neither empty nor not empty,stage,0,1200,476,603,5,41313,9,2,Very interesting study!
A2M3LVBUZLN8MO:3WAKVUDHUXO017K6T6B07RV4QAO7U1,1459378271825,English,5,hot,bath,Q and not-Q,cold and not cold,stage,32,212,47,50,3,16814,9,2,Very interesting study!
A2M3LVBUZLN8MO:3WAKVUDHUXO017K6T6B07RV4QAO7U1,1459378282412,English,6,tall,US male,not-Q,not short,individual,48,96,72,74,6,10587,9,2,Very interesting study!
A27HVVLSZZ13XK:3S3AMIZX3VDKWM4GYSTMDDJU5LJCDO,1459370810289,English,1,hot,bath,Q,cold,stage,32,212,72,68,7,32359,8,2,
A27HVVLSZZ13XK:3S3AMIZX3VDKWM4GYSTMDDJU5LJCDO,1459370858806,English,2,long,movie,P and not-P,long and not long,individual,50,240,231,150,3,48516,8,2,
A27HVVLSZZ13XK:3S3AMIZX3VDKWM4GYSTMDDJU5LJCDO,1459370874737,English,3,expensive,laptop,P,expensive,individual,50,4000,976,1705,7,15930,8,2,
A27HVVLSZZ13XK:3S3AMIZX3VDKWM4GYSTMDDJU5LJCDO,1459370896869,English,4,tall,US male,neither P nor not-P,neither tall nor not tall,individual,48,96,72,71,5,22130,8,2,
A27HVVLSZZ13XK:3S3AMIZX3VDKWM4GYSTMDDJU5LJCDO,1459370914605,English,5,fast,car,Q and not-Q,slow and not slow,stage,0,120,99,35,4,17735,8,2,
A27HVVLSZZ13XK:3S3AMIZX3VDKWM4GYSTMDDJU5LJCDO,1459370947165,English,6,full,band,neither Q nor not-Q,neither empty nor not empty,stage,0,1200,420,200,5,32559,8,2,
A2WQTSU6SSBUWC:3M23Y66PO3F1IUEXLRB8MCDKA09S6T,1459350553943,English,1,expensive,laptop,not-P ,not expensive,individual,50,4000,2605,298,7,19858,8,0,no
A2WQTSU6SSBUWC:3M23Y66PO3F1IUEXLRB8MCDKA09S6T,1459350569173,English,2,full,band,neither P nor Q,neither full nor empty,stage,0,1200,175,40,7,15229,8,0,no
A2WQTSU6SSBUWC:3M23Y66PO3F1IUEXLRB8MCDKA09S6T,1459350579149,English,3,tall,US male,neither P nor not-P,neither tall nor not tall,individual,48,96,71,69,2,9974,8,0,no
A2WQTSU6SSBUWC:3M23Y66PO3F1IUEXLRB8MCDKA09S6T,1459350592316,English,4,long,movie,neither Q nor not-Q,neither short nor not short,individual,50,240,131,129,2,13167,8,0,no
A2WQTSU6SSBUWC:3M23Y66PO3F1IUEXLRB8MCDKA09S6T,1459350605485,English,5,fast,car,Q and not-Q,slow and not slow,stage,0,120,74,45,2,13167,8,0,no
A2WQTSU6SSBUWC:3M23Y66PO3F1IUEXLRB8MCDKA09S6T,1459350617340,English,6,hot,bath,Q,cold,stage,32,212,80,70,7,11854,8,0,no
A3KHBRDIP0E72S:37TRT2X24RZEP3C2UOJ25R8PSKHBJV,1459372004234,English,1,tall,US male,neither P nor not-P,neither tall nor not tall,individual,48,96,67,71,2,13305,5,0,
A3KHBRDIP0E72S:37TRT2X24RZEP3C2UOJ25R8PSKHBJV,1459372016521,English,2,long,movie,P,long,individual,50,240,83,140,6,12286,5,0,
A3KHBRDIP0E72S:37TRT2X24RZEP3C2UOJ25R8PSKHBJV,1459372026273,English,3,fast,car,neither P nor Q,neither fast nor slow,stage,0,120,78,60,5,9751,5,0,
A3KHBRDIP0E72S:37TRT2X24RZEP3C2UOJ25R8PSKHBJV,1459372044049,English,4,full,band,Q,empty,stage,0,1200,978,676,7,17775,5,0,
A3KHBRDIP0E72S:37TRT2X24RZEP3C2UOJ25R8PSKHBJV,1459372059905,English,5,hot,bath,not-P ,not hot,stage,32,212,206,96,6,15856,5,0,
A3KHBRDIP0E72S:37TRT2X24RZEP3C2UOJ25R8PSKHBJV,1459372073761,English,6,expensive,laptop,neither Q nor not-Q,neither cheap nor not cheap,individual,50,4000,1007,863,6,13856,5,0,
A3AT9S1CF9QV4K:3DL65MZB8ENPOSIGUN46JV1F5XKCEH,1459370820000,English,1,expensive,laptop,P,expensive,individual,50,4000,281,1956,7,26311,8,0,
A3AT9S1CF9QV4K:3DL65MZB8ENPOSIGUN46JV1F5XKCEH,1459370846349,English,2,hot,bath,neither P nor Q,neither hot nor cold,stage,32,212,147,71,6,26333,8,0,
A3AT9S1CF9QV4K:3DL65MZB8ENPOSIGUN46JV1F5XKCEH,1459370858946,English,3,tall,US male,not-P ,not tall,individual,48,96,73,68,6,12597,8,0,
A3AT9S1CF9QV4K:3DL65MZB8ENPOSIGUN46JV1F5XKCEH,1459370873588,English,4,fast,car,not-Q,not slow,stage,0,120,51,55,7,14642,8,0,
A3AT9S1CF9QV4K:3DL65MZB8ENPOSIGUN46JV1F5XKCEH,1459370906703,English,5,full,band,P and not-P,full and not full,stage,0,1200,831,891,5,33115,8,0,
A3AT9S1CF9QV4K:3DL65MZB8ENPOSIGUN46JV1F5XKCEH,1459370919179,English,6,long,movie,Q,short,individual,50,240,164,109,6,12476,8,0,
A3T7N805PVNEXN:3TXD01ZLD5P3IK2NR8DT4FBUZ814UH,1459378053916,english,1,fast,car,not-Q,not slow,stage,0,120,2,85,6,12061,7,1,
A3T7N805PVNEXN:3TXD01ZLD5P3IK2NR8DT4FBUZ814UH,1459378069843,english,2,expensive,laptop,neither Q nor not-Q,neither cheap nor not cheap,individual,50,4000,1617,548,2,15926,7,1,
A3T7N805PVNEXN:3TXD01ZLD5P3IK2NR8DT4FBUZ814UH,1459378077435,english,3,long,movie,Q and not-Q,short and not short,individual,50,240,87,90,1,7591,7,1,
A3T7N805PVNEXN:3TXD01ZLD5P3IK2NR8DT4FBUZ814UH,1459378087892,english,4,tall,US male,P,tall,individual,48,96,49,78,7,10454,7,1,
A3T7N805PVNEXN:3TXD01ZLD5P3IK2NR8DT4FBUZ814UH,1459378101107,english,5,full,band,neither P nor Q,neither full nor empty,stage,0,1200,284,700,5,13214,7,1,
A3T7N805PVNEXN:3TXD01ZLD5P3IK2NR8DT4FBUZ814UH,1459378112939,english,6,hot,bath,not-P ,not hot,stage,32,212,184,68,2,11831,7,1,
A3H6E9E6A0LMT8:34Z02EIMITL7JJ5X820HNGZFZIKT05,1459389127421,english,1,tall,US male,not-Q,not short,individual,48,96,69,70,4,22245,8,0,
A3H6E9E6A0LMT8:34Z02EIMITL7JJ5X820HNGZFZIKT05,1459389148856,english,2,full,band,neither Q nor not-Q,neither empty nor not empty,stage,0,1200,286,695,4,21433,8,0,
A3H6E9E6A0LMT8:34Z02EIMITL7JJ5X820HNGZFZIKT05,1459389176037,english,3,long,movie,P and not-P,long and not long,individual,50,240,58,136,2,27179,8,0,
A3H6E9E6A0LMT8:34Z02EIMITL7JJ5X820HNGZFZIKT05,1459389187330,english,4,hot,bath,Q,cold,stage,32,212,32,32,7,11291,8,0,
A3H6E9E6A0LMT8:34Z02EIMITL7JJ5X820HNGZFZIKT05,1459389198950,english,5,fast,car,not-P ,not fast,stage,0,120,88,20,2,11618,8,0,
A3H6E9E6A0LMT8:34Z02EIMITL7JJ5X820HNGZFZIKT05,1459389213097,english,6,expensive,laptop,Q and not-Q,cheap and not cheap,individual,50,4000,2552,1495,2,14145,8,0,
A30AFC17LLJFV6:3KXIR214I5OUY8TL8O3NYWG2GF442H,1459349608200,english,1,hot,bath,not-P ,not hot,stage,32,212,123,80,5,34947,7,1,no
A30AFC17LLJFV6:3KXIR214I5OUY8TL8O3NYWG2GF442H,1459349629877,english,2,fast,car,neither Q nor not-Q,neither slow nor not slow,stage,0,120,23,30,3,21673,7,1,no
A30AFC17LLJFV6:3KXIR214I5OUY8TL8O3NYWG2GF442H,1459349653503,english,3,full,band,Q and not-Q,empty and not empty,stage,0,1200,819,149,2,23622,7,1,no
A30AFC17LLJFV6:3KXIR214I5OUY8TL8O3NYWG2GF442H,1459349667398,english,4,expensive,laptop,P and not-P,expensive and not expensive,individual,50,4000,3188,833,2,13893,7,1,no
A30AFC17LLJFV6:3KXIR214I5OUY8TL8O3NYWG2GF442H,1459349681906,english,5,tall,US male,neither P nor Q,neither tall nor short,individual,48,96,79,70,5,14505,7,1,no
A30AFC17LLJFV6:3KXIR214I5OUY8TL8O3NYWG2GF442H,1459349702254,english,6,long,movie,not-Q,not short,individual,50,240,73,151,7,20345,7,1,no
A2WF8JGMNB4UEN:308Q0PEVB9LZ6ZDZEMK62KYZR5XI9O,1459386579384,English,1,full,band,neither P nor not-P,neither full nor not full,stage,0,1200,1136,803,1,22582,10,5,
A2WF8JGMNB4UEN:308Q0PEVB9LZ6ZDZEMK62KYZR5XI9O,1459386590382,English,2,tall,US male,P and not-P,tall and not tall,individual,48,96,51,69,1,10982,10,5,
A2WF8JGMNB4UEN:308Q0PEVB9LZ6ZDZEMK62KYZR5XI9O,1459386605290,English,3,expensive,laptop,P,expensive,individual,50,4000,3985,2002,7,14886,10,5,
A2WF8JGMNB4UEN:308Q0PEVB9LZ6ZDZEMK62KYZR5XI9O,1459386615981,English,4,fast,car,neither P nor Q,neither fast nor slow,stage,0,120,97,35,2,10677,10,5,
A2WF8JGMNB4UEN:308Q0PEVB9LZ6ZDZEMK62KYZR5XI9O,1459386627696,English,5,long,movie,neither Q nor not-Q,neither short nor not short,individual,50,240,78,55,1,11701,10,5,
A2WF8JGMNB4UEN:308Q0PEVB9LZ6ZDZEMK62KYZR5XI9O,1459386641134,English,6,hot,bath,not-P ,not hot,stage,32,212,122,69,7,13422,10,5,
A3P5WIW36V70AI:339ANSOTR6AJNVWQIJBVSTCF2XQKIX,1459349860725,English,1,tall,US male,Q and not-Q,short and not short,individual,48,96,75,68,2,14871,6,0,
A3P5WIW36V70AI:339ANSOTR6AJNVWQIJBVSTCF2XQKIX,1459349873038,English,2,fast,car,neither P nor Q,neither fast nor slow,stage,0,120,117,45,6,12311,6,0,
A3P5WIW36V70AI:339ANSOTR6AJNVWQIJBVSTCF2XQKIX,1459349893011,English,3,hot,bath,P and not-P,hot and not hot,stage,32,212,178,83,2,19971,6,0,
A3P5WIW36V70AI:339ANSOTR6AJNVWQIJBVSTCF2XQKIX,1459349909434,English,4,expensive,laptop,neither P nor not-P,neither expensive nor not expensive,individual,50,4000,3926,354,7,16421,6,0,
A3P5WIW36V70AI:339ANSOTR6AJNVWQIJBVSTCF2XQKIX,1459349926508,English,5,long,movie,neither Q nor not-Q,neither short nor not short,individual,50,240,158,107,2,17072,6,0,
A3P5WIW36V70AI:339ANSOTR6AJNVWQIJBVSTCF2XQKIX,1459349938187,English,6,full,band,P,full,stage,0,1200,902,1200,7,11677,6,0,
A2IUT0610X9CV0:3N4BPTXIO90OWMRQC009BW0QWUNUKT,1459370887649,English,1,tall,US male,Q and not-Q,short and not short,individual,48,96,80,67,4,14961,5,5,
A2IUT0610X9CV0:3N4BPTXIO90OWMRQC009BW0QWUNUKT,1459370902003,English,2,long,movie,P and not-P,long and not long,individual,50,240,124,139,4,14340,5,5,
A2IUT0610X9CV0:3N4BPTXIO90OWMRQC009BW0QWUNUKT,1459370914614,English,3,fast,car,not-P ,not fast,stage,0,120,48,71,6,12605,5,5,
A2IUT0610X9CV0:3N4BPTXIO90OWMRQC009BW0QWUNUKT,1459370934100,English,4,full,band,not-Q,not empty,stage,0,1200,166,105,2,19482,5,5,
A2IUT0610X9CV0:3N4BPTXIO90OWMRQC009BW0QWUNUKT,1459370945828,English,5,hot,bath,neither Q nor not-Q,neither cold nor not cold,stage,32,212,198,112,4,11723,5,5,
A2IUT0610X9CV0:3N4BPTXIO90OWMRQC009BW0QWUNUKT,1459370954577,English,6,expensive,laptop,neither P nor not-P,neither expensive nor not expensive,individual,50,4000,3931,1426,2,8737,5,5,
AB0XZHE3OKXQR:351SEKWQS1PX58G7BHN0G9O6ZZXDMH,1459389174634,english,1,long,movie,not-Q,not short,individual,50,240,79,135,3,12890,10,0,no
AB0XZHE3OKXQR:351SEKWQS1PX58G7BHN0G9O6ZZXDMH,1459389189789,english,2,expensive,laptop,neither P nor not-P,neither expensive nor not expensive,individual,50,4000,1394,499,1,15154,10,0,no
AB0XZHE3OKXQR:351SEKWQS1PX58G7BHN0G9O6ZZXDMH,1459389201363,english,3,fast,car,not-P ,not fast,stage,0,120,4,50,3,11573,10,0,no
AB0XZHE3OKXQR:351SEKWQS1PX58G7BHN0G9O6ZZXDMH,1459389217406,english,4,full,band,Q and not-Q,empty and not empty,stage,0,1200,677,151,1,16042,10,0,no
AB0XZHE3OKXQR:351SEKWQS1PX58G7BHN0G9O6ZZXDMH,1459389228320,english,5,tall,US male,P and not-P,tall and not tall,individual,48,96,77,72,1,10913,10,0,no
AB0XZHE3OKXQR:351SEKWQS1PX58G7BHN0G9O6ZZXDMH,1459389248653,english,6,hot,bath,neither Q nor not-Q,neither cold nor not cold,stage,32,212,40,68,1,20332,10,0,no
AR5E0ZVWKJA95:3137ONMDKHD254YLW90P9MMU3PNGE6,1459392036536,English,1,tall,US male,not-Q,not short,individual,48,96,79,74,6,13769,8,0,Thank you for allowing me to participate.
AR5E0ZVWKJA95:3137ONMDKHD254YLW90P9MMU3PNGE6,1459392044143,English,2,fast,car,P,fast,stage,0,120,86,78,6,7606,8,0,Thank you for allowing me to participate.
AR5E0ZVWKJA95:3137ONMDKHD254YLW90P9MMU3PNGE6,1459392057159,English,3,full,band,Q and not-Q,empty and not empty,stage,0,1200,233,327,2,13013,8,0,Thank you for allowing me to participate.
AR5E0ZVWKJA95:3137ONMDKHD254YLW90P9MMU3PNGE6,1459392073182,English,4,long,movie,neither P nor Q,neither long nor short,individual,50,240,88,100,5,16022,8,0,Thank you for allowing me to participate.
AR5E0ZVWKJA95:3137ONMDKHD254YLW90P9MMU3PNGE6,1459392089102,English,5,hot,bath,neither Q nor not-Q,neither cold nor not cold,stage,32,212,39,83,4,15919,8,0,Thank you for allowing me to participate.
AR5E0ZVWKJA95:3137ONMDKHD254YLW90P9MMU3PNGE6,1459392101606,English,6,expensive,laptop,not-P ,not expensive,individual,50,4000,759,779,5,12501,8,0,Thank you for allowing me to participate.
A18SXC3JEN1O0U:3E1QT0TDFQHZSUUP9UES2O3O7XWI8C,1459348695332,english,1,expensive,laptop,Q and not-Q,cheap and not cheap,individual,50,4000,2028,2014,1,31437,8,2,
A18SXC3JEN1O0U:3E1QT0TDFQHZSUUP9UES2O3O7XWI8C,1459348738599,english,2,hot,bath,neither Q nor not-Q,neither cold nor not cold,stage,32,212,157,97,6,43250,8,2,
A18SXC3JEN1O0U:3E1QT0TDFQHZSUUP9UES2O3O7XWI8C,1459348756232,english,3,tall,US male,P,tall,individual,48,96,86,74,7,17625,8,2,
A18SXC3JEN1O0U:3E1QT0TDFQHZSUUP9UES2O3O7XWI8C,1459348775199,english,4,fast,car,not-P ,not fast,stage,0,120,50,55,7,18945,8,2,
A18SXC3JEN1O0U:3E1QT0TDFQHZSUUP9UES2O3O7XWI8C,1459348805717,english,5,full,band,Q,empty,stage,0,1200,689,155,5,30501,8,2,
A18SXC3JEN1O0U:3E1QT0TDFQHZSUUP9UES2O3O7XWI8C,1459348842630,english,6,long,movie,not-Q,not short,individual,50,240,92,120,6,36896,8,2,
A1B4WL7N3ACF2T:3GS6S824SR52WW1Y4D7QLC2RB5FWNB,1459395876001,English,1,hot,bath,neither Q nor not-Q,neither cold nor not cold,stage,32,212,61,93,4,13444,10,0,
A1B4WL7N3ACF2T:3GS6S824SR52WW1Y4D7QLC2RB5FWNB,1459395889824,English,2,tall,US male,P and not-P,tall and not tall,individual,48,96,89,73,5,13823,10,0,
A1B4WL7N3ACF2T:3GS6S824SR52WW1Y4D7QLC2RB5FWNB,1459395908464,English,3,expensive,laptop,neither P nor Q,neither expensive nor cheap,individual,50,4000,2831,409,7,18638,10,0,
A1B4WL7N3ACF2T:3GS6S824SR52WW1Y4D7QLC2RB5FWNB,1459395920491,English,4,long,movie,P,long,individual,50,240,213,188,7,12017,10,0,
A1B4WL7N3ACF2T:3GS6S824SR52WW1Y4D7QLC2RB5FWNB,1459395929721,English,5,full,band,Q and not-Q,empty and not empty,stage,0,1200,263,22,3,9229,10,0,
A1B4WL7N3ACF2T:3GS6S824SR52WW1Y4D7QLC2RB5FWNB,1459395942667,English,6,fast,car,not-P ,not fast,stage,0,120,116,25,5,12945,10,0,
A1CA46R2A6TV9W:3KYQYYSHYWFL5B1JOX2D8DDBUXTDO9,1459349675155,english,1,tall,US male,neither Q nor not-Q,neither short nor not short,individual,48,96,90,67,1,9386,10,10,
A1CA46R2A6TV9W:3KYQYYSHYWFL5B1JOX2D8DDBUXTDO9,1459349682860,english,2,long,movie,neither P nor Q,neither long nor short,individual,50,240,55,102,5,7702,10,10,
A1CA46R2A6TV9W:3KYQYYSHYWFL5B1JOX2D8DDBUXTDO9,1459349692730,english,3,hot,bath,Q,cold,stage,32,212,174,93,7,9869,10,10,
A1CA46R2A6TV9W:3KYQYYSHYWFL5B1JOX2D8DDBUXTDO9,1459349701547,english,4,full,band,not-Q,not empty,stage,0,1200,509,709,4,8816,10,10,
A1CA46R2A6TV9W:3KYQYYSHYWFL5B1JOX2D8DDBUXTDO9,1459349709715,english,5,fast,car,not-P ,not fast,stage,0,120,60,22,4,8163,10,10,
A1CA46R2A6TV9W:3KYQYYSHYWFL5B1JOX2D8DDBUXTDO9,1459349718798,english,6,expensive,laptop,P and not-P,expensive and not expensive,individual,50,4000,3099,1397,2,9081,10,10,
A1GHLU2WTSFD37:3TUI152ZZCVUYSYNNHAMWG72K3N1QY,1459379909077,English,1,long,movie,Q,short,individual,50,240,130,60,2,34160,8,0,
A1GHLU2WTSFD37:3TUI152ZZCVUYSYNNHAMWG72K3N1QY,1459379929213,English,2,tall,US male,not-P ,not tall,individual,48,96,90,66,1,20136,8,0,
A1GHLU2WTSFD37:3TUI152ZZCVUYSYNNHAMWG72K3N1QY,1459379968679,English,3,fast,car,P and not-P,fast and not fast,stage,0,120,14,50,1,39466,8,0,
A1GHLU2WTSFD37:3TUI152ZZCVUYSYNNHAMWG72K3N1QY,1459379993928,English,4,full,band,neither Q nor not-Q,neither empty nor not empty,stage,0,1200,374,1175,1,25249,8,0,
A1GHLU2WTSFD37:3TUI152ZZCVUYSYNNHAMWG72K3N1QY,1459380029871,English,5,hot,bath,Q and not-Q,cold and not cold,stage,32,212,130,67,1,35943,8,0,
A1GHLU2WTSFD37:3TUI152ZZCVUYSYNNHAMWG72K3N1QY,1459380051632,English,6,expensive,laptop,not-Q,not cheap,individual,50,4000,1155,1900,3,21745,8,0,
A31Q7PWLBCU2X0:3UXUOQ9OKF5GMY68N1U97QJAJ7VA7R,1459370939016,English,1,tall,US male,Q and not-Q,short and not short,individual,48,96,49,68,2,78581,9,3,None
A31Q7PWLBCU2X0:3UXUOQ9OKF5GMY68N1U97QJAJ7VA7R,1459370946168,English,2,long,movie,not-Q,not short,individual,50,240,227,146,7,7152,9,3,None
A31Q7PWLBCU2X0:3UXUOQ9OKF5GMY68N1U97QJAJ7VA7R,1459370951864,English,3,fast,car,neither Q nor not-Q,neither slow nor not slow,stage,0,120,49,50,3,5693,9,3,None
A31Q7PWLBCU2X0:3UXUOQ9OKF5GMY68N1U97QJAJ7VA7R,1459370965398,English,4,full,band,neither P nor Q,neither full nor empty,stage,0,1200,397,497,4,13534,9,3,None
A31Q7PWLBCU2X0:3UXUOQ9OKF5GMY68N1U97QJAJ7VA7R,1459370972938,English,5,expensive,laptop,Q,cheap,individual,50,4000,3160,645,7,7540,9,3,None
A31Q7PWLBCU2X0:3UXUOQ9OKF5GMY68N1U97QJAJ7VA7R,1459370990314,English,6,hot,bath,P,hot,stage,32,212,172,80,7,17360,9,3,None
AF3FRMNPFKEG3:3X1FV8S5JYZJ7FK7RZPZ9QAG3I6GVO,1459349592009,English,1,fast,car,neither P nor not-P,neither fast nor not fast,stage,0,120,35,45,2,15457,8,0,No.
AF3FRMNPFKEG3:3X1FV8S5JYZJ7FK7RZPZ9QAG3I6GVO,1459349602644,English,2,tall,US male,not-Q,not short,individual,48,96,61,72,7,10634,8,0,No.
AF3FRMNPFKEG3:3X1FV8S5JYZJ7FK7RZPZ9QAG3I6GVO,1459349617938,English,3,full,band,not-P ,not full,stage,0,1200,182,193,6,15294,8,0,No.
AF3FRMNPFKEG3:3X1FV8S5JYZJ7FK7RZPZ9QAG3I6GVO,1459349636458,English,4,expensive,laptop,Q and not-Q,cheap and not cheap,individual,50,4000,1300,501,2,18520,8,0,No.
AF3FRMNPFKEG3:3X1FV8S5JYZJ7FK7RZPZ9QAG3I6GVO,1459349650531,English,5,long,movie,P and not-P,long and not long,individual,50,240,115,110,1,14073,8,0,No.
AF3FRMNPFKEG3:3X1FV8S5JYZJ7FK7RZPZ9QAG3I6GVO,1459349665838,English,6,hot,bath,P,hot,stage,32,212,186,172,6,15307,8,0,No.
A2CU75UPXCS8J6:3K2755HG5TBRZYOQPUJNLJ4X2YNDFC,1459394178016,English,1,tall,US male,not-P ,not tall,individual,48,96,78,68,3,18354,8,3,Thank You
A2CU75UPXCS8J6:3K2755HG5TBRZYOQPUJNLJ4X2YNDFC,1459394208855,English,2,full,band,P,full,stage,0,1200,372,1200,7,30838,8,3,Thank You
A2CU75UPXCS8J6:3K2755HG5TBRZYOQPUJNLJ4X2YNDFC,1459394237392,English,3,expensive,laptop,neither Q nor not-Q,neither cheap nor not cheap,individual,50,4000,1088,224,1,28536,8,3,Thank You
A2CU75UPXCS8J6:3K2755HG5TBRZYOQPUJNLJ4X2YNDFC,1459394268991,English,4,hot,bath,neither P nor Q,neither hot nor cold,stage,32,212,39,70,3,31598,8,3,Thank You
A2CU75UPXCS8J6:3K2755HG5TBRZYOQPUJNLJ4X2YNDFC,1459394303606,English,5,long,movie,P and not-P,long and not long,individual,50,240,189,130,2,34613,8,3,Thank You
A2CU75UPXCS8J6:3K2755HG5TBRZYOQPUJNLJ4X2YNDFC,1459394327838,English,6,fast,car,neither P nor not-P,neither fast nor not fast,stage,0,120,95,60,1,24231,8,3,Thank You
A2EPI9A2N9OP3J:34T446B1C1MQX23MMG5RY6ZBBU10C6,1459351866320,English,1,long,movie,neither P nor Q,neither long nor short,individual,50,240,207,130,7,23351,8,3,no
A2EPI9A2N9OP3J:34T446B1C1MQX23MMG5RY6ZBBU10C6,1459351913195,English,2,tall,US male,P,tall,individual,48,96,69,73,7,46861,8,3,no
A2EPI9A2N9OP3J:34T446B1C1MQX23MMG5RY6ZBBU10C6,1459351951952,English,3,expensive,laptop,P and not-P,expensive and not expensive,individual,50,4000,411,812,3,38740,8,3,no
A2EPI9A2N9OP3J:34T446B1C1MQX23MMG5RY6ZBBU10C6,1459351987003,English,4,full,band,neither Q nor not-Q,neither empty nor not empty,stage,0,1200,564,942,2,35043,8,3,no
A2EPI9A2N9OP3J:34T446B1C1MQX23MMG5RY6ZBBU10C6,1459352015566,English,5,fast,car,Q,slow,stage,0,120,28,25,7,28553,8,3,no
A2EPI9A2N9OP3J:34T446B1C1MQX23MMG5RY6ZBBU10C6,1459352045967,English,6,hot,bath,neither P nor not-P,neither hot nor not hot,stage,32,212,160,99,2,30395,8,3,no
A1OLDS1G4N8R3H:3SNLUL3WO5VZGS98X0CAQWD5LU1LUW,1459387337722,English,1,hot,bath,P and not-P,hot and not hot,stage,32,212,139,75,1,29748,9,1,No comments to add.
A1OLDS1G4N8R3H:3SNLUL3WO5VZGS98X0CAQWD5LU1LUW,1459387354882,English,2,tall,US male,neither Q nor not-Q,neither short nor not short,individual,48,96,48,65,2,17158,9,1,No comments to add.
A1OLDS1G4N8R3H:3SNLUL3WO5VZGS98X0CAQWD5LU1LUW,1459387376214,English,3,long,movie,neither P nor Q,neither long nor short,individual,50,240,201,100,3,21331,9,1,No comments to add.
A1OLDS1G4N8R3H:3SNLUL3WO5VZGS98X0CAQWD5LU1LUW,1459387398511,English,4,expensive,laptop,not-P ,not expensive,individual,50,4000,1059,499,7,22297,9,1,No comments to add.
A1OLDS1G4N8R3H:3SNLUL3WO5VZGS98X0CAQWD5LU1LUW,1459387414995,English,5,fast,car,P,fast,stage,0,120,21,80,6,16483,9,1,No comments to add.
A1OLDS1G4N8R3H:3SNLUL3WO5VZGS98X0CAQWD5LU1LUW,1459387441763,English,6,full,band,neither P nor not-P,neither full nor not full,stage,0,1200,444,501,2,26766,9,1,No comments to add.
A3RO17UKZ723P8:3LUY3GC6308N92CACKC6XL85IRL7PQ,1459348686343,english,1,hot,bath,not-P ,not hot,stage,32,212,53,78,3,12407,7,2,none now
A3RO17UKZ723P8:3LUY3GC6308N92CACKC6XL85IRL7PQ,1459348699789,english,2,tall,US male,P and not-P,tall and not tall,individual,48,96,63,69,5,13445,7,2,none now
A3RO17UKZ723P8:3LUY3GC6308N92CACKC6XL85IRL7PQ,1459348709263,english,3,full,band,P,full,stage,0,1200,253,680,6,9473,7,2,none now
A3RO17UKZ723P8:3LUY3GC6308N92CACKC6XL85IRL7PQ,1459348720918,english,4,fast,car,Q and not-Q,slow and not slow,stage,0,120,77,55,3,11653,7,2,none now
A3RO17UKZ723P8:3LUY3GC6308N92CACKC6XL85IRL7PQ,1459348729715,english,5,long,movie,neither P nor Q,neither long nor short,individual,50,240,177,125,3,8797,7,2,none now
A3RO17UKZ723P8:3LUY3GC6308N92CACKC6XL85IRL7PQ,1459348738245,english,6,expensive,laptop,neither Q nor not-Q,neither cheap nor not cheap,individual,50,4000,3491,1516,5,8529,7,2,none now
AY3JWZ1R4XVJD:336YQZE83WM21V1EWB5HIX0EMHIM5Z,1459351893491,English,1,hot,bath,neither P nor not-P,neither hot nor not hot,stage,32,212,87,70,6,16165,9,1,
AY3JWZ1R4XVJD:336YQZE83WM21V1EWB5HIX0EMHIM5Z,1459351919509,English,2,full,band,not-Q,not empty,stage,0,1200,261,1014,5,26018,9,1,
AY3JWZ1R4XVJD:336YQZE83WM21V1EWB5HIX0EMHIM5Z,1459351932210,English,3,expensive,laptop,neither Q nor not-Q,neither cheap nor not cheap,individual,50,4000,3752,566,6,12701,9,1,
AY3JWZ1R4XVJD:336YQZE83WM21V1EWB5HIX0EMHIM5Z,1459351944747,English,4,tall,US male,P,tall,individual,48,96,70,75,6,12537,9,1,
AY3JWZ1R4XVJD:336YQZE83WM21V1EWB5HIX0EMHIM5Z,1459351955787,English,5,fast,car,P and not-P,fast and not fast,stage,0,120,11,75,6,11038,9,1,
AY3JWZ1R4XVJD:336YQZE83WM21V1EWB5HIX0EMHIM5Z,1459351968554,English,6,long,movie,neither P nor Q,neither long nor short,individual,50,240,167,96,6,12765,9,1,
A1Z9510ON62X4X:34S6N1K2ZWRUB63OX15B7HOFRMQHLI,1459373333890,english,1,tall,US male,P and not-P,tall and not tall,individual,48,96,58,70,3,20873,7,1,no
A1Z9510ON62X4X:34S6N1K2ZWRUB63OX15B7HOFRMQHLI,1459373385632,english,2,fast,car,Q,slow,stage,0,120,84,28,6,51741,7,1,no
A1Z9510ON62X4X:34S6N1K2ZWRUB63OX15B7HOFRMQHLI,1459373410097,english,3,expensive,laptop,Q and not-Q,cheap and not cheap,individual,50,4000,3181,441,2,24464,7,1,no
A1Z9510ON62X4X:34S6N1K2ZWRUB63OX15B7HOFRMQHLI,1459373428529,english,4,hot,bath,neither P nor Q,neither hot nor cold,stage,32,212,58,69,6,18431,7,1,no
A1Z9510ON62X4X:34S6N1K2ZWRUB63OX15B7HOFRMQHLI,1459373442969,english,5,full,band,neither P nor not-P,neither full nor not full,stage,0,1200,1124,579,2,14438,7,1,no
A1Z9510ON62X4X:34S6N1K2ZWRUB63OX15B7HOFRMQHLI,1459373470336,english,6,long,movie,neither Q nor not-Q,neither short nor not short,individual,50,240,72,80,2,27367,7,1,no
A26ENSYH8UVYC2:308XBLVESJCVNRVF2TSB7IUG2ZZBR7,1459347041911,English,1,fast,car,neither Q nor not-Q,neither slow nor not slow,stage,0,120,81,40,3,17277,7,1,
A26ENSYH8UVYC2:308XBLVESJCVNRVF2TSB7IUG2ZZBR7,1459347054613,English,2,expensive,laptop,P,expensive,individual,50,4000,751,2002,7,12700,7,1,
A26ENSYH8UVYC2:308XBLVESJCVNRVF2TSB7IUG2ZZBR7,1459347061401,English,3,long,movie,neither P nor Q,neither long nor short,individual,50,240,101,95,5,6787,7,1,
A26ENSYH8UVYC2:308XBLVESJCVNRVF2TSB7IUG2ZZBR7,1459347069566,English,4,hot,bath,Q,cold,stage,32,212,124,60,7,8165,7,1,
A26ENSYH8UVYC2:308XBLVESJCVNRVF2TSB7IUG2ZZBR7,1459347087076,English,5,full,band,neither P nor not-P,neither full nor not full,stage,0,1200,562,1200,3,17509,7,1,
A26ENSYH8UVYC2:308XBLVESJCVNRVF2TSB7IUG2ZZBR7,1459347096854,English,6,tall,US male,not-Q,not short,individual,48,96,52,71,7,9777,7,1,
A1VSMPT1ILT912:3WR9XG3T64J1K9QRE0KIUNXARX874M,1459384903159,English,1,tall,US male,neither Q nor not-Q,neither short nor not short,individual,48,96,50,70,3,16671,10,0,Na
A1VSMPT1ILT912:3WR9XG3T64J1K9QRE0KIUNXARX874M,1459384913322,English,2,hot,bath,Q and not-Q,cold and not cold,stage,32,212,50,72,3,10160,10,0,Na
A1VSMPT1ILT912:3WR9XG3T64J1K9QRE0KIUNXARX874M,1459384927062,English,3,full,band,Q,empty,stage,0,1200,698,296,6,13739,10,0,Na
A1VSMPT1ILT912:3WR9XG3T64J1K9QRE0KIUNXARX874M,1459384941724,English,4,long,movie,neither P nor not-P,neither long nor not long,individual,50,240,130,93,3,14661,10,0,Na
A1VSMPT1ILT912:3WR9XG3T64J1K9QRE0KIUNXARX874M,1459384962849,English,5,fast,car,neither P nor Q,neither fast nor slow,stage,0,120,92,55,3,21124,10,0,Na
A1VSMPT1ILT912:3WR9XG3T64J1K9QRE0KIUNXARX874M,1459384974937,English,6,expensive,laptop,P,expensive,individual,50,4000,3760,1285,6,12087,10,0,Na
A1JNOFVI58L10O:3JPSL1DZ5T75PJYV38BY3N50JKQNA1,1459348700017,English,1,full,band,neither Q nor not-Q,neither empty nor not empty,stage,0,1200,244,1150,4,28693,5,3,
A1JNOFVI58L10O:3JPSL1DZ5T75PJYV38BY3N50JKQNA1,1459348723323,English,2,tall,US male,Q,short,individual,48,96,74,66,5,23291,5,3,
A1JNOFVI58L10O:3JPSL1DZ5T75PJYV38BY3N50JKQNA1,1459348745348,English,3,hot,bath,not-P ,not hot,stage,32,212,87,65,6,22007,5,3,
A1JNOFVI58L10O:3JPSL1DZ5T75PJYV38BY3N50JKQNA1,1459348760890,English,4,long,movie,Q and not-Q,short and not short,individual,50,240,101,115,7,15525,5,3,
A1JNOFVI58L10O:3JPSL1DZ5T75PJYV38BY3N50JKQNA1,1459348798271,English,5,fast,car,P,fast,stage,0,120,78,90,5,37367,5,3,
A1JNOFVI58L10O:3JPSL1DZ5T75PJYV38BY3N50JKQNA1,1459348831304,English,6,expensive,laptop,neither P nor Q,neither expensive nor cheap,individual,50,4000,552,558,7,33020,5,3,
A3QLAEDNYW0AL3:3RYC5T2D741XRLWPLYAC22Z5J3GRPA,1459349355069,English,1,long,movie,Q and not-Q,short and not short,individual,50,240,115,85,5,19976,10,1,This study was very interesting.  It is very refreshing to participate in a study that is different.
A3QLAEDNYW0AL3:3RYC5T2D741XRLWPLYAC22Z5J3GRPA,1459349377183,English,2,hot,bath,Q,cold,stage,32,212,177,69,4,22113,10,1,This study was very interesting.  It is very refreshing to participate in a study that is different.
A3QLAEDNYW0AL3:3RYC5T2D741XRLWPLYAC22Z5J3GRPA,1459349396393,English,3,fast,car,P and not-P,fast and not fast,stage,0,120,57,60,1,19209,10,1,This study was very interesting.  It is very refreshing to participate in a study that is different.
A3QLAEDNYW0AL3:3RYC5T2D741XRLWPLYAC22Z5J3GRPA,1459349415976,English,4,full,band,not-P ,not full,stage,0,1200,1097,272,5,19580,10,1,This study was very interesting.  It is very refreshing to participate in a study that is different.
A3QLAEDNYW0AL3:3RYC5T2D741XRLWPLYAC22Z5J3GRPA,1459349426366,English,5,tall,US male,neither P nor Q,neither tall nor short,individual,48,96,61,68,3,10389,10,1,This study was very interesting.  It is very refreshing to participate in a study that is different.
A3QLAEDNYW0AL3:3RYC5T2D741XRLWPLYAC22Z5J3GRPA,1459349444521,English,6,expensive,laptop,neither Q nor not-Q,neither cheap nor not cheap,individual,50,4000,818,543,3,18154,10,1,This study was very interesting.  It is very refreshing to participate in a study that is different.
A14D297BQB6QF3:3V5Q80FXIYZ9GCAH8AY4OROW2F832V,1459348720514,English,1,expensive,laptop,not-P ,not expensive,individual,50,4000,1498,221,6,16578,10,0,
A14D297BQB6QF3:3V5Q80FXIYZ9GCAH8AY4OROW2F832V,1459348729423,English,2,fast,car,P and not-P,fast and not fast,stage,0,120,85,31,1,8906,10,0,
A14D297BQB6QF3:3V5Q80FXIYZ9GCAH8AY4OROW2F832V,1459348740559,English,3,full,band,neither P nor Q,neither full nor empty,stage,0,1200,492,523,5,11134,10,0,
A14D297BQB6QF3:3V5Q80FXIYZ9GCAH8AY4OROW2F832V,1459348750384,English,4,tall,US male,Q and not-Q,short and not short,individual,48,96,83,67,1,9822,10,0,
A14D297BQB6QF3:3V5Q80FXIYZ9GCAH8AY4OROW2F832V,1459348773337,English,5,long,movie,Q,short,individual,50,240,182,77,7,22951,10,0,
A14D297BQB6QF3:3V5Q80FXIYZ9GCAH8AY4OROW2F832V,1459348802318,English,6,hot,bath,not-Q,not cold,stage,32,212,103,85,6,28979,10,0,
A1FYFBIFYWTMJS:3U5JL4WY5LHVZOWIWDOGOMAYTQF4X6,1459367197530,English,1,fast,car,P and not-P,fast and not fast,stage,0,120,66,88,1,17375,8,2,no comments
A1FYFBIFYWTMJS:3U5JL4WY5LHVZOWIWDOGOMAYTQF4X6,1459367219176,English,2,expensive,laptop,neither Q nor not-Q,neither cheap nor not cheap,individual,50,4000,1529,4000,1,21643,8,2,no comments
A1FYFBIFYWTMJS:3U5JL4WY5LHVZOWIWDOGOMAYTQF4X6,1459367235943,English,3,full,band,Q and not-Q,empty and not empty,stage,0,1200,864,71,1,16765,8,2,no comments
A1FYFBIFYWTMJS:3U5JL4WY5LHVZOWIWDOGOMAYTQF4X6,1459367247536,English,4,hot,bath,not-Q,not cold,stage,32,212,107,212,7,11591,8,2,no comments
A1FYFBIFYWTMJS:3U5JL4WY5LHVZOWIWDOGOMAYTQF4X6,1459367261774,English,5,long,movie,neither P nor Q,neither long nor short,individual,50,240,228,78,1,14237,8,2,no comments
A1FYFBIFYWTMJS:3U5JL4WY5LHVZOWIWDOGOMAYTQF4X6,1459367270040,English,6,tall,US male,P,tall,individual,48,96,63,96,7,8265,8,2,no comments
A2CEUCPDECS6U3:34V1S5K3GT9JDFIYCLBH5H8UICI96X,1459345845531,english,1,full,band,neither Q nor not-Q,neither empty nor not empty,stage,0,1200,62,389,2,9817,10,0,
A2CEUCPDECS6U3:34V1S5K3GT9JDFIYCLBH5H8UICI96X,1459345851514,english,2,long,movie,Q,short,individual,50,240,81,72,5,5982,10,0,
A2CEUCPDECS6U3:34V1S5K3GT9JDFIYCLBH5H8UICI96X,1459345859893,english,3,expensive,laptop,not-Q,not cheap,individual,50,4000,3765,2923,5,8378,10,0,
A2CEUCPDECS6U3:34V1S5K3GT9JDFIYCLBH5H8UICI96X,1459345870078,english,4,fast,car,neither P nor not-P,neither fast nor not fast,stage,0,120,113,55,4,10183,10,0,
A2CEUCPDECS6U3:34V1S5K3GT9JDFIYCLBH5H8UICI96X,1459345876181,english,5,tall,US male,P,tall,individual,48,96,65,77,5,6103,10,0,
A2CEUCPDECS6U3:34V1S5K3GT9JDFIYCLBH5H8UICI96X,1459345884295,english,6,hot,bath,neither P nor Q,neither hot nor cold,stage,32,212,143,110,3,8113,10,0,
A2Q4A0C8Y3OQQ0:3HHRAGRYX9D92LO2CHXBMHUL3ER9O5,1459376167674,english,1,full,band,neither P nor not-P,neither full nor not full,stage,0,1200,674,722,2,25949,10,0,
A2Q4A0C8Y3OQQ0:3HHRAGRYX9D92LO2CHXBMHUL3ER9O5,1459376178891,english,2,tall,US male,P and not-P,tall and not tall,individual,48,96,88,74,6,11213,10,0,
A2Q4A0C8Y3OQQ0:3HHRAGRYX9D92LO2CHXBMHUL3ER9O5,1459376190031,english,3,fast,car,Q,slow,stage,0,120,48,20,6,11139,10,0,
A2Q4A0C8Y3OQQ0:3HHRAGRYX9D92LO2CHXBMHUL3ER9O5,1459376200222,english,4,hot,bath,P,hot,stage,32,212,147,155,5,10189,10,0,
A2Q4A0C8Y3OQQ0:3HHRAGRYX9D92LO2CHXBMHUL3ER9O5,1459376219447,english,5,expensive,laptop,Q and not-Q,cheap and not cheap,individual,50,4000,1639,927,6,19223,10,0,
A2Q4A0C8Y3OQQ0:3HHRAGRYX9D92LO2CHXBMHUL3ER9O5,1459376232170,english,6,long,movie,neither Q nor not-Q,neither short nor not short,individual,50,240,111,106,4,12721,10,0,
A24WQ0ZEGXHX6J:31LVTDXBL8I700HRT6H5LLQLETFRLC,1459350344980,English,1,tall,US male,P,tall,individual,48,96,79,75,6,16479,10,0,
A24WQ0ZEGXHX6J:31LVTDXBL8I700HRT6H5LLQLETFRLC,1459350364403,English,2,fast,car,Q,slow,stage,0,120,101,10,6,19422,10,0,
A24WQ0ZEGXHX6J:31LVTDXBL8I700HRT6H5LLQLETFRLC,1459350379173,English,3,hot,bath,not-Q,not cold,stage,32,212,94,90,6,14769,10,0,
A24WQ0ZEGXHX6J:31LVTDXBL8I700HRT6H5LLQLETFRLC,1459350398197,English,4,full,band,not-P ,not full,stage,0,1200,619,749,7,19023,10,0,
A24WQ0ZEGXHX6J:31LVTDXBL8I700HRT6H5LLQLETFRLC,1459350422965,English,5,expensive,laptop,neither P nor Q,neither expensive nor cheap,individual,50,4000,3494,501,6,24767,10,0,
A24WQ0ZEGXHX6J:31LVTDXBL8I700HRT6H5LLQLETFRLC,1459350441800,English,6,long,movie,neither P nor not-P,neither long nor not long,individual,50,240,175,110,2,18834,10,0,
A21QI62HF6DHAV:3FQ5JJ512MWB1W7HFZONX18WOYZNKZ,1459377966925,ENGLISH,1,full,band,not-Q,not empty,stage,0,1200,54,1135,6,16033,4,2,
A21QI62HF6DHAV:3FQ5JJ512MWB1W7HFZONX18WOYZNKZ,1459377980278,ENGLISH,2,expensive,laptop,neither Q nor not-Q,neither cheap nor not cheap,individual,50,4000,824,622,6,13343,4,2,
A21QI62HF6DHAV:3FQ5JJ512MWB1W7HFZONX18WOYZNKZ,1459377988606,ENGLISH,3,hot,bath,neither P nor Q,neither hot nor cold,stage,32,212,199,79,6,8328,4,2,
A21QI62HF6DHAV:3FQ5JJ512MWB1W7HFZONX18WOYZNKZ,1459377993694,ENGLISH,4,long,movie,neither P nor not-P,neither long nor not long,individual,50,240,79,90,6,5078,4,2,
A21QI62HF6DHAV:3FQ5JJ512MWB1W7HFZONX18WOYZNKZ,1459377999639,ENGLISH,5,tall,US male,not-P ,not tall,individual,48,96,85,65,6,5945,4,2,
A21QI62HF6DHAV:3FQ5JJ512MWB1W7HFZONX18WOYZNKZ,1459378007236,ENGLISH,6,fast,car,Q and not-Q,slow and not slow,stage,0,120,12,56,6,7597,4,2,
A1W1MK77ISFFLE:3S06PH7KSSC09JUIIV42WH031O41DZ,1459392777945,english,1,long,movie,P and not-P,long and not long,individual,50,240,57,105,5,28306,5,0,
A1W1MK77ISFFLE:3S06PH7KSSC09JUIIV42WH031O41DZ,1459392789212,english,2,expensive,laptop,not-P ,not expensive,individual,50,4000,1524,400,4,11266,5,0,
A1W1MK77ISFFLE:3S06PH7KSSC09JUIIV42WH031O41DZ,1459392803084,english,3,fast,car,Q,slow,stage,0,120,108,20,3,13871,5,0,
A1W1MK77ISFFLE:3S06PH7KSSC09JUIIV42WH031O41DZ,1459392856690,english,4,full,band,neither P nor Q,neither full nor empty,stage,0,1200,600,798,2,53605,5,0,
A1W1MK77ISFFLE:3S06PH7KSSC09JUIIV42WH031O41DZ,1459392879433,english,5,hot,bath,not-Q,not cold,stage,32,212,207,90,6,22742,5,0,
A1W1MK77ISFFLE:3S06PH7KSSC09JUIIV42WH031O41DZ,1459392893024,english,6,tall,US male,Q and not-Q,short and not short,individual,48,96,48,69,5,13589,5,0,
A37EV8RZ82WT8E:3URFVVM166QJLHQCC13JYBO3030ZUK,1459371789172,english,1,fast,car,not-Q,not slow,stage,0,120,70,76,6,8880,8,4,
A37EV8RZ82WT8E:3URFVVM166QJLHQCC13JYBO3030ZUK,1459371800316,english,2,full,band,neither Q nor not-Q,neither empty nor not empty,stage,0,1200,166,1045,7,11142,8,4,
A37EV8RZ82WT8E:3URFVVM166QJLHQCC13JYBO3030ZUK,1459371814149,english,3,long,movie,Q and not-Q,short and not short,individual,50,240,87,87,6,13832,8,4,
A37EV8RZ82WT8E:3URFVVM166QJLHQCC13JYBO3030ZUK,1459371847724,english,4,expensive,laptop,neither P nor not-P,neither expensive nor not expensive,individual,50,4000,3598,675,3,33573,8,4,
A37EV8RZ82WT8E:3URFVVM166QJLHQCC13JYBO3030ZUK,1459371861055,english,5,tall,US male,neither P nor Q,neither tall nor short,individual,48,96,65,69,5,13328,8,4,
A37EV8RZ82WT8E:3URFVVM166QJLHQCC13JYBO3030ZUK,1459371870954,english,6,hot,bath,P,hot,stage,32,212,211,98,7,9897,8,4,
AD368A1RHHRC3:3ZQIG0FLQFOF41A764THVTW4X85VWF,1459371477967,english,1,full,band,Q,empty,stage,0,1200,999,0,7,73868,5,4,
AD368A1RHHRC3:3ZQIG0FLQFOF41A764THVTW4X85VWF,1459371516605,english,2,tall,US male,neither Q nor not-Q,neither short nor not short,individual,48,96,71,72,1,38632,5,4,
AD368A1RHHRC3:3ZQIG0FLQFOF41A764THVTW4X85VWF,1459371552012,english,3,hot,bath,P,hot,stage,32,212,70,130,7,35403,5,4,
AD368A1RHHRC3:3ZQIG0FLQFOF41A764THVTW4X85VWF,1459371585391,english,4,fast,car,Q and not-Q,slow and not slow,stage,0,120,105,55,1,33374,5,4,
AD368A1RHHRC3:3ZQIG0FLQFOF41A764THVTW4X85VWF,1459371623621,english,5,expensive,laptop,neither P nor Q,neither expensive nor cheap,individual,50,4000,1739,1203,3,38219,5,4,
AD368A1RHHRC3:3ZQIG0FLQFOF41A764THVTW4X85VWF,1459371662147,english,6,long,movie,P and not-P,long and not long,individual,50,240,97,100,1,38517,5,4,
A33DI3X0V7ZLCF:3T111IHZ5FYCZYGI49EFGCZQEZX9RW,1459350167456,English,1,full,band,not-P ,not full,stage,0,1200,812,831,6,29998,8,3,none
A33DI3X0V7ZLCF:3T111IHZ5FYCZYGI49EFGCZQEZX9RW,1459350183175,English,2,expensive,laptop,P and not-P,expensive and not expensive,individual,50,4000,2917,339,2,15708,8,3,none
A33DI3X0V7ZLCF:3T111IHZ5FYCZYGI49EFGCZQEZX9RW,1459350204787,English,3,long,movie,neither P nor Q,neither long nor short,individual,50,240,134,108,5,21601,8,3,none
A33DI3X0V7ZLCF:3T111IHZ5FYCZYGI49EFGCZQEZX9RW,1459350221941,English,4,tall,US male,Q,short,individual,48,96,58,62,5,17148,8,3,none
A33DI3X0V7ZLCF:3T111IHZ5FYCZYGI49EFGCZQEZX9RW,1459350238844,English,5,fast,car,Q and not-Q,slow and not slow,stage,0,120,74,44,6,16888,8,3,none
A33DI3X0V7ZLCF:3T111IHZ5FYCZYGI49EFGCZQEZX9RW,1459350248670,English,6,hot,bath,not-Q,not cold,stage,32,212,144,94,6,9819,8,3,none
A3QFR660T2UJBX:35DR22AR5ESAHSDEWZJXEHISFQN3XO,1459377315393,English,1,fast,car,neither P nor Q,neither fast nor slow,stage,0,120,66,30,7,20783,8,3,
A3QFR660T2UJBX:35DR22AR5ESAHSDEWZJXEHISFQN3XO,1459377340870,English,2,long,movie,not-P ,not long,individual,50,240,68,75,6,25475,8,3,
A3QFR660T2UJBX:35DR22AR5ESAHSDEWZJXEHISFQN3XO,1459377362428,English,3,full,band,Q,empty,stage,0,1200,148,172,6,21557,8,3,
A3QFR660T2UJBX:35DR22AR5ESAHSDEWZJXEHISFQN3XO,1459377375019,English,4,expensive,laptop,P,expensive,individual,50,4000,1683,2488,7,12589,8,3,
A3QFR660T2UJBX:35DR22AR5ESAHSDEWZJXEHISFQN3XO,1459377393244,English,5,tall,US male,neither Q nor not-Q,neither short nor not short,individual,48,96,90,69,1,18223,8,3,
A3QFR660T2UJBX:35DR22AR5ESAHSDEWZJXEHISFQN3XO,1459377450852,English,6,hot,bath,not-Q,not cold,stage,32,212,165,99,5,57606,8,3,
A3ICWVGCEDRXS0:3R6BYFZZP8K5X4T7GUKZFQ7PIGOXFN,1459372011868,English,1,hot,bath,neither P nor Q,neither hot nor cold,stage,32,212,207,98,6,33320,4,1,
A3ICWVGCEDRXS0:3R6BYFZZP8K5X4T7GUKZFQ7PIGOXFN,1459372025682,English,2,tall,US male,not-Q,not short,individual,48,96,82,68,4,13812,4,1,
A3ICWVGCEDRXS0:3R6BYFZZP8K5X4T7GUKZFQ7PIGOXFN,1459372039490,English,3,fast,car,neither P nor not-P,neither fast nor not fast,stage,0,120,66,45,1,13807,4,1,
A3ICWVGCEDRXS0:3R6BYFZZP8K5X4T7GUKZFQ7PIGOXFN,1459372055074,English,4,full,band,Q,empty,stage,0,1200,1178,0,1,15583,4,1,
A3ICWVGCEDRXS0:3R6BYFZZP8K5X4T7GUKZFQ7PIGOXFN,1459372070954,English,5,expensive,laptop,P,expensive,individual,50,4000,372,1497,7,15879,4,1,
A3ICWVGCEDRXS0:3R6BYFZZP8K5X4T7GUKZFQ7PIGOXFN,1459372090162,English,6,long,movie,P and not-P,long and not long,individual,50,240,108,130,1,19207,4,1,
A1JFRWXMS10396:3NS0A6KXC5G0GZPHSWE2UWNCRVRGZ7,1459378983223,English,1,expensive,laptop,Q,cheap,individual,50,4000,2365,1867,7,15012,8,2,
A1JFRWXMS10396:3NS0A6KXC5G0GZPHSWE2UWNCRVRGZ7,1459378992425,English,2,fast,car,not-P ,not fast,stage,0,120,77,28,3,9200,8,2,
A1JFRWXMS10396:3NS0A6KXC5G0GZPHSWE2UWNCRVRGZ7,1459379002935,English,3,hot,bath,not-Q,not cold,stage,32,212,66,68,5,10509,8,2,
A1JFRWXMS10396:3NS0A6KXC5G0GZPHSWE2UWNCRVRGZ7,1459379017356,English,4,long,movie,neither Q nor not-Q,neither short nor not short,individual,50,240,112,90,4,14420,8,2,
A1JFRWXMS10396:3NS0A6KXC5G0GZPHSWE2UWNCRVRGZ7,1459379023696,English,5,tall,US male,neither P nor Q,neither tall nor short,individual,48,96,60,68,4,6338,8,2,
A1JFRWXMS10396:3NS0A6KXC5G0GZPHSWE2UWNCRVRGZ7,1459379045452,English,6,full,band,P,full,stage,0,1200,194,1200,4,21755,8,2,
A38HFMRXB5Q13M:32VNZTT0A8CB2SA6NEIOZ4OAS95R48,1459394596329,english,1,expensive,laptop,neither P nor Q,neither expensive nor cheap,individual,50,4000,2476,1242,2,8910,2,0,
A38HFMRXB5Q13M:32VNZTT0A8CB2SA6NEIOZ4OAS95R48,1459394601725,english,2,full,band,P and not-P,full and not full,stage,0,1200,543,341,4,5393,2,0,
A38HFMRXB5Q13M:32VNZTT0A8CB2SA6NEIOZ4OAS95R48,1459394609204,english,3,hot,bath,Q and not-Q,cold and not cold,stage,32,212,131,80,3,7475,2,0,
A38HFMRXB5Q13M:32VNZTT0A8CB2SA6NEIOZ4OAS95R48,1459394617514,english,4,fast,car,neither P nor not-P,neither fast nor not fast,stage,0,120,44,55,3,8308,2,0,
A38HFMRXB5Q13M:32VNZTT0A8CB2SA6NEIOZ4OAS95R48,1459394624943,english,5,long,movie,not-P ,not long,individual,50,240,86,75,7,7426,2,0,
A38HFMRXB5Q13M:32VNZTT0A8CB2SA6NEIOZ4OAS95R48,1459394630629,english,6,tall,US male,P,tall,individual,48,96,95,76,7,5684,2,0,
A19I1KU0HG8JG3:34MAJL3QP5VJJQP4COHSH6LUMT443S,1459350367984,English,1,tall,US male,neither Q nor not-Q,neither short nor not short,individual,48,96,75,66,2,37492,10,0,
A19I1KU0HG8JG3:34MAJL3QP5VJJQP4COHSH6LUMT443S,1459350395472,English,2,hot,bath,neither P nor not-P,neither hot nor not hot,stage,32,212,183,90,2,27485,10,0,
A19I1KU0HG8JG3:34MAJL3QP5VJJQP4COHSH6LUMT443S,1459350420538,English,3,long,movie,Q,short,individual,50,240,152,75,7,25063,10,0,
A19I1KU0HG8JG3:34MAJL3QP5VJJQP4COHSH6LUMT443S,1459350438749,English,4,full,band,neither P nor Q,neither full nor empty,stage,0,1200,121,607,7,18210,10,0,
A19I1KU0HG8JG3:34MAJL3QP5VJJQP4COHSH6LUMT443S,1459350459792,English,5,fast,car,not-Q,not slow,stage,0,120,34,75,6,21040,10,0,
A19I1KU0HG8JG3:34MAJL3QP5VJJQP4COHSH6LUMT443S,1459350477525,English,6,expensive,laptop,not-P ,not expensive,individual,50,4000,1864,432,7,17732,10,0,
ATHS9CW2FLYUY:3BEFOD78W71K5CXEI6M7D5U0MMZM48,1459379023427,English,1,fast,car,Q,slow,stage,0,120,12,9,6,13615,7,0,
ATHS9CW2FLYUY:3BEFOD78W71K5CXEI6M7D5U0MMZM48,1459379032600,English,2,expensive,laptop,P and not-P,expensive and not expensive,individual,50,4000,1526,756,3,9170,7,0,
ATHS9CW2FLYUY:3BEFOD78W71K5CXEI6M7D5U0MMZM48,1459379042333,English,3,tall,US male,neither Q nor not-Q,neither short nor not short,individual,48,96,72,67,2,9731,7,0,
ATHS9CW2FLYUY:3BEFOD78W71K5CXEI6M7D5U0MMZM48,1459379053292,English,4,full,band,P,full,stage,0,1200,940,1180,7,10956,7,0,
ATHS9CW2FLYUY:3BEFOD78W71K5CXEI6M7D5U0MMZM48,1459379063774,English,5,long,movie,not-Q,not short,individual,50,240,173,160,6,10481,7,0,
ATHS9CW2FLYUY:3BEFOD78W71K5CXEI6M7D5U0MMZM48,1459379083093,English,6,hot,bath,Q and not-Q,cold and not cold,stage,32,212,149,135,2,19317,7,0,
A2PD916OPCCIGB:3KXIR214I5OUY8TL8O3NYWG2GHK421,1459381002509,English,1,fast,car,not-Q,not slow,stage,0,120,39,65,2,25577,7,2,No
A2PD916OPCCIGB:3KXIR214I5OUY8TL8O3NYWG2GHK421,1459381028093,English,2,expensive,laptop,Q and not-Q,cheap and not cheap,individual,50,4000,3608,400,1,25584,7,2,No
A2PD916OPCCIGB:3KXIR214I5OUY8TL8O3NYWG2GHK421,1459381063576,English,3,full,band,neither Q nor not-Q,neither empty nor not empty,stage,0,1200,859,600,2,35483,7,2,No
A2PD916OPCCIGB:3KXIR214I5OUY8TL8O3NYWG2GHK421,1459381084477,English,4,long,movie,Q,short,individual,50,240,58,75,5,20901,7,2,No
A2PD916OPCCIGB:3KXIR214I5OUY8TL8O3NYWG2GHK421,1459381099780,English,5,tall,US male,P,tall,individual,48,96,56,74,7,15303,7,2,No
A2PD916OPCCIGB:3KXIR214I5OUY8TL8O3NYWG2GHK421,1459381126446,English,6,hot,bath,neither P nor Q,neither hot nor cold,stage,32,212,91,80,3,26666,7,2,No
A1OZL7QG65HABF:3IUZPWIU1PF1OQGV70FATKLNHA0WKW,1459376109872,English,1,long,movie,neither P nor Q,neither long nor short,individual,50,240,228,90,5,19837,9,4,
A1OZL7QG65HABF:3IUZPWIU1PF1OQGV70FATKLNHA0WKW,1459376128108,English,2,fast,car,Q and not-Q,slow and not slow,stage,0,120,42,45,2,18235,9,4,
A1OZL7QG65HABF:3IUZPWIU1PF1OQGV70FATKLNHA0WKW,1459376153050,English,3,full,band,neither P nor not-P,neither full nor not full,stage,0,1200,503,752,3,24940,9,4,
A1OZL7QG65HABF:3IUZPWIU1PF1OQGV70FATKLNHA0WKW,1459376165216,English,4,tall,US male,P,tall,individual,48,96,68,74,7,12165,9,4,
A1OZL7QG65HABF:3IUZPWIU1PF1OQGV70FATKLNHA0WKW,1459376181235,English,5,hot,bath,Q,cold,stage,32,212,95,65,7,16018,9,4,
A1OZL7QG65HABF:3IUZPWIU1PF1OQGV70FATKLNHA0WKW,1459376201603,English,6,expensive,laptop,not-P ,not expensive,individual,50,4000,475,293,7,20366,9,4,
AFVMFN52OMIX9:3ZGVPD4G6UP4L4BNCWD9TF21HNJTZ9,1459349333897,english,1,fast,car,neither Q nor not-Q,neither slow nor not slow,stage,0,120,82,35,2,20826,9,1,
AFVMFN52OMIX9:3ZGVPD4G6UP4L4BNCWD9TF21HNJTZ9,1459349348431,english,2,long,movie,Q,short,individual,50,240,81,90,7,14533,9,1,
AFVMFN52OMIX9:3ZGVPD4G6UP4L4BNCWD9TF21HNJTZ9,1459349365780,english,3,tall,US male,not-Q,not short,individual,48,96,69,72,4,17347,9,1,
AFVMFN52OMIX9:3ZGVPD4G6UP4L4BNCWD9TF21HNJTZ9,1459349387340,english,4,hot,bath,neither P nor Q,neither hot nor cold,stage,32,212,87,90,6,21559,9,1,
AFVMFN52OMIX9:3ZGVPD4G6UP4L4BNCWD9TF21HNJTZ9,1459349413696,english,5,full,band,not-P ,not full,stage,0,1200,790,900,5,26355,9,1,
AFVMFN52OMIX9:3ZGVPD4G6UP4L4BNCWD9TF21HNJTZ9,1459349436624,english,6,expensive,laptop,P,expensive,individual,50,4000,441,2502,7,22927,9,1,
A1WMJ844WUZN2H:3ERMJ6L4DZ0HOZFXK4KEGHEADOMM7P,1459374557348,English,1,fast,car,P and not-P,fast and not fast,stage,0,120,35,35,6,13610,6,3,
A1WMJ844WUZN2H:3ERMJ6L4DZ0HOZFXK4KEGHEADOMM7P,1459374574670,English,2,hot,bath,Q and not-Q,cold and not cold,stage,32,212,199,50,4,17319,6,3,
A1WMJ844WUZN2H:3ERMJ6L4DZ0HOZFXK4KEGHEADOMM7P,1459374591759,English,3,expensive,laptop,neither P nor not-P,neither expensive nor not expensive,individual,50,4000,2927,599,5,17086,6,3,
A1WMJ844WUZN2H:3ERMJ6L4DZ0HOZFXK4KEGHEADOMM7P,1459374601640,English,4,long,movie,not-P ,not long,individual,50,240,159,120,6,9877,6,3,
A1WMJ844WUZN2H:3ERMJ6L4DZ0HOZFXK4KEGHEADOMM7P,1459374610287,English,5,tall,US male,Q,short,individual,48,96,62,64,3,8643,6,3,
A1WMJ844WUZN2H:3ERMJ6L4DZ0HOZFXK4KEGHEADOMM7P,1459374622645,English,6,full,band,P,full,stage,0,1200,587,1200,6,12355,6,3,
A4NESXCW7R6SX:3P529IW9KZTAXACI2BHB4WC2B53FL4,1459348764015,English,1,fast,car,not-P ,not fast,stage,0,120,64,40,1,23573,7,2,
A4NESXCW7R6SX:3P529IW9KZTAXACI2BHB4WC2B53FL4,1459348795959,English,2,expensive,laptop,neither P nor Q,neither expensive nor cheap,individual,50,4000,2296,525,2,31936,7,2,
A4NESXCW7R6SX:3P529IW9KZTAXACI2BHB4WC2B53FL4,1459348848825,English,3,full,band,P and not-P,full and not full,stage,0,1200,286,1197,2,52860,7,2,
A4NESXCW7R6SX:3P529IW9KZTAXACI2BHB4WC2B53FL4,1459348866150,English,4,long,movie,neither Q nor not-Q,neither short nor not short,individual,50,240,142,96,2,17312,7,2,
A4NESXCW7R6SX:3P529IW9KZTAXACI2BHB4WC2B53FL4,1459348887006,English,5,tall,US male,neither P nor not-P,neither tall nor not tall,individual,48,96,79,65,1,20849,7,2,
A4NESXCW7R6SX:3P529IW9KZTAXACI2BHB4WC2B53FL4,1459348900849,English,6,hot,bath,Q and not-Q,cold and not cold,stage,32,212,34,75,1,13836,7,2,
A2XC6HDW19I1QF:3EICBYG6454XZ8488OFXGBE7A37JCW,1459350270443,English,1,fast,car,neither P nor Q,neither fast nor slow,stage,0,120,82,56,6,10314,8,2,"No, thank you."
A2XC6HDW19I1QF:3EICBYG6454XZ8488OFXGBE7A37JCW,1459350314077,English,2,hot,bath,neither Q nor not-Q,neither cold nor not cold,stage,32,212,33,85,4,43633,8,2,"No, thank you."
A2XC6HDW19I1QF:3EICBYG6454XZ8488OFXGBE7A37JCW,1459350325124,English,3,long,movie,not-P ,not long,individual,50,240,159,132,6,11046,8,2,"No, thank you."
A2XC6HDW19I1QF:3EICBYG6454XZ8488OFXGBE7A37JCW,1459350335678,English,4,tall,US male,P and not-P,tall and not tall,individual,48,96,68,72,5,10554,8,2,"No, thank you."
A2XC6HDW19I1QF:3EICBYG6454XZ8488OFXGBE7A37JCW,1459350351195,English,5,full,band,Q and not-Q,empty and not empty,stage,0,1200,992,364,6,15517,8,2,"No, thank you."
A2XC6HDW19I1QF:3EICBYG6454XZ8488OFXGBE7A37JCW,1459350365089,English,6,expensive,laptop,not-Q,not cheap,individual,50,4000,1772,2641,1,13893,8,2,"No, thank you."
A3W2GD46AOIJPJ:3MHW492WW1LJZPGT22NUMVUDZ6ZVMW,1459383515324,English,1,long,movie,neither P nor not-P,neither long nor not long,individual,50,240,149,90,7,24253,6,2,
A3W2GD46AOIJPJ:3MHW492WW1LJZPGT22NUMVUDZ6ZVMW,1459383537966,English,2,expensive,laptop,neither Q nor not-Q,neither cheap nor not cheap,individual,50,4000,3815,603,5,22634,6,2,
A3W2GD46AOIJPJ:3MHW492WW1LJZPGT22NUMVUDZ6ZVMW,1459383551662,English,3,fast,car,not-Q,not slow,stage,0,120,116,60,6,13691,6,2,
A3W2GD46AOIJPJ:3MHW492WW1LJZPGT22NUMVUDZ6ZVMW,1459383574219,English,4,full,band,P and not-P,full and not full,stage,0,1200,480,1100,1,22552,6,2,
A3W2GD46AOIJPJ:3MHW492WW1LJZPGT22NUMVUDZ6ZVMW,1459383593143,English,5,hot,bath,not-P ,not hot,stage,32,212,185,75,4,18918,6,2,
A3W2GD46AOIJPJ:3MHW492WW1LJZPGT22NUMVUDZ6ZVMW,1459383607254,English,6,tall,US male,P,tall,individual,48,96,85,77,7,14101,6,2,
A3L2VS3998R77L:3VNXK88KKDQ4S5XZDTJPH9OTZ5AV9B,1459348765062,English,1,long,movie,P,long,individual,50,240,94,100,5,22815,10,5,Thanks
A3L2VS3998R77L:3VNXK88KKDQ4S5XZDTJPH9OTZ5AV9B,1459348788149,English,2,fast,car,P and not-P,fast and not fast,stage,0,120,37,60,1,23087,10,5,Thanks
A3L2VS3998R77L:3VNXK88KKDQ4S5XZDTJPH9OTZ5AV9B,1459348802644,English,3,expensive,laptop,Q and not-Q,cheap and not cheap,individual,50,4000,2554,890,1,14494,10,5,Thanks
A3L2VS3998R77L:3VNXK88KKDQ4S5XZDTJPH9OTZ5AV9B,1459348819532,English,4,hot,bath,Q,cold,stage,32,212,112,90,7,16887,10,5,Thanks
A3L2VS3998R77L:3VNXK88KKDQ4S5XZDTJPH9OTZ5AV9B,1459348835541,English,5,tall,US male,neither Q nor not-Q,neither short nor not short,individual,48,96,61,67,2,16008,10,5,Thanks
A3L2VS3998R77L:3VNXK88KKDQ4S5XZDTJPH9OTZ5AV9B,1459348856493,English,6,full,band,not-P ,not full,stage,0,1200,415,995,7,20950,10,5,Thanks
AVMIXXCHPD291:33IZTU6J829E19YTMEKYMPQ4747XSR,1459351477056,English,1,expensive,laptop,P and not-P,expensive and not expensive,individual,50,4000,1379,400,2,21277,5,0,None
AVMIXXCHPD291:33IZTU6J829E19YTMEKYMPQ4747XSR,1459351490098,English,2,hot,bath,Q,cold,stage,32,212,52,83,7,13040,5,0,None
AVMIXXCHPD291:33IZTU6J829E19YTMEKYMPQ4747XSR,1459351504619,English,3,fast,car,not-P ,not fast,stage,0,120,61,45,7,14519,5,0,None
AVMIXXCHPD291:33IZTU6J829E19YTMEKYMPQ4747XSR,1459351525004,English,4,full,band,Q and not-Q,empty and not empty,stage,0,1200,780,199,1,20379,5,0,None
AVMIXXCHPD291:33IZTU6J829E19YTMEKYMPQ4747XSR,1459351537268,English,5,tall,US male,neither Q nor not-Q,neither short nor not short,individual,48,96,70,70,6,12262,5,0,None
AVMIXXCHPD291:33IZTU6J829E19YTMEKYMPQ4747XSR,1459351549076,English,6,long,movie,P,long,individual,50,240,121,145,7,11806,5,0,None
A27O2IILV3S5YS:34S9DKFK74X6L1WYJEPE69N7MBRYNK,1459345942206,english,1,long,movie,Q and not-Q,short and not short,individual,50,240,179,136,1,10491,10,0,
A27O2IILV3S5YS:34S9DKFK74X6L1WYJEPE69N7MBRYNK,1459345947765,english,2,tall,US male,not-P ,not tall,individual,48,96,75,65,6,5555,10,0,
A27O2IILV3S5YS:34S9DKFK74X6L1WYJEPE69N7MBRYNK,1459345961163,english,3,hot,bath,P and not-P,hot and not hot,stage,32,212,113,58,1,13395,10,0,
A27O2IILV3S5YS:34S9DKFK74X6L1WYJEPE69N7MBRYNK,1459345968800,english,4,expensive,laptop,neither P nor Q,neither expensive nor cheap,individual,50,4000,2482,677,6,7635,10,0,
A27O2IILV3S5YS:34S9DKFK74X6L1WYJEPE69N7MBRYNK,1459345974235,english,5,full,band,P,full,stage,0,1200,876,902,7,5434,10,0,
A27O2IILV3S5YS:34S9DKFK74X6L1WYJEPE69N7MBRYNK,1459345983178,english,6,fast,car,Q,slow,stage,0,120,93,33,7,8941,10,0,
A2A27TLFWKDXUW:34J10VATJG65YYULVOVSOFOO15SQI9,1459371322431,English,1,long,movie,P and not-P,long and not long,individual,50,240,70,153,3,19845,10,0,
A2A27TLFWKDXUW:34J10VATJG65YYULVOVSOFOO15SQI9,1459371340784,English,2,tall,US male,neither Q nor not-Q,neither short nor not short,individual,48,96,65,67,3,18348,10,0,
A2A27TLFWKDXUW:34J10VATJG65YYULVOVSOFOO15SQI9,1459371352973,English,3,hot,bath,P,hot,stage,32,212,126,132,7,12183,10,0,
A2A27TLFWKDXUW:34J10VATJG65YYULVOVSOFOO15SQI9,1459371365114,English,4,expensive,laptop,not-Q,not cheap,individual,50,4000,877,1106,7,12138,10,0,
A2A27TLFWKDXUW:34J10VATJG65YYULVOVSOFOO15SQI9,1459371383109,English,5,fast,car,Q,slow,stage,0,120,17,38,6,17992,10,0,
A2A27TLFWKDXUW:34J10VATJG65YYULVOVSOFOO15SQI9,1459371403984,English,6,full,band,neither P nor not-P,neither full nor not full,stage,0,1200,1130,1073,3,20870,10,0,
A1SRVU0V65XJAK:3VHHR074H4PXIHXCKSJZG4ZLDJUL7K,1459371188649,English,1,full,band,not-Q,not empty,stage,0,1200,1017,499,1,28627,9,2,I enjoyed doing this task. Thanks for the opportunity!
A1SRVU0V65XJAK:3VHHR074H4PXIHXCKSJZG4ZLDJUL7K,1459371202296,English,2,long,movie,P and not-P,long and not long,individual,50,240,176,114,1,13645,9,2,I enjoyed doing this task. Thanks for the opportunity!
A1SRVU0V65XJAK:3VHHR074H4PXIHXCKSJZG4ZLDJUL7K,1459371215199,English,3,expensive,laptop,P,expensive,individual,50,4000,3289,1201,6,12901,9,2,I enjoyed doing this task. Thanks for the opportunity!
A1SRVU0V65XJAK:3VHHR074H4PXIHXCKSJZG4ZLDJUL7K,1459371233093,English,4,fast,car,neither P nor not-P,neither fast nor not fast,stage,0,120,64,40,1,17892,9,2,I enjoyed doing this task. Thanks for the opportunity!
A1SRVU0V65XJAK:3VHHR074H4PXIHXCKSJZG4ZLDJUL7K,1459371252762,English,5,tall,US male,neither Q nor not-Q,neither short nor not short,individual,48,96,80,69,2,19667,9,2,I enjoyed doing this task. Thanks for the opportunity!
A1SRVU0V65XJAK:3VHHR074H4PXIHXCKSJZG4ZLDJUL7K,1459371272195,English,6,hot,bath,Q,cold,stage,32,212,41,60,7,19432,9,2,I enjoyed doing this task. Thanks for the opportunity!
A1P14RA5FX3HPD:30OG32W0SVJ8FWF7JDDKZ6VR4ZONEW,1459348738354,English,1,long,movie,P,long,individual,50,240,182,190,7,12108,10,3,
A1P14RA5FX3HPD:30OG32W0SVJ8FWF7JDDKZ6VR4ZONEW,1459348752385,English,2,tall,US male,not-Q,not short,individual,48,96,50,72,6,14028,10,3,
A1P14RA5FX3HPD:30OG32W0SVJ8FWF7JDDKZ6VR4ZONEW,1459348771776,English,3,expensive,laptop,neither Q nor not-Q,neither cheap nor not cheap,individual,50,4000,416,516,5,19388,10,3,
A1P14RA5FX3HPD:30OG32W0SVJ8FWF7JDDKZ6VR4ZONEW,1459348787379,English,4,fast,car,neither P nor not-P,neither fast nor not fast,stage,0,120,42,60,5,15600,10,3,
A1P14RA5FX3HPD:30OG32W0SVJ8FWF7JDDKZ6VR4ZONEW,1459348808443,English,5,full,band,Q and not-Q,empty and not empty,stage,0,1200,749,103,2,21056,10,3,
A1P14RA5FX3HPD:30OG32W0SVJ8FWF7JDDKZ6VR4ZONEW,1459348826088,English,6,hot,bath,P and not-P,hot and not hot,stage,32,212,204,125,4,17638,10,3,
A10LGIY5HFYMZM:32SCWG5HIIC452Y5TA7ER789NIBP6N,1459370866332,English,1,tall,US male,P and not-P,tall and not tall,individual,48,96,64,67,5,20684,4,1,Thank you.
A10LGIY5HFYMZM:32SCWG5HIIC452Y5TA7ER789NIBP6N,1459370881843,English,2,expensive,laptop,not-Q,not cheap,individual,50,4000,3593,2914,5,15508,4,1,Thank you.
A10LGIY5HFYMZM:32SCWG5HIIC452Y5TA7ER789NIBP6N,1459370905164,English,3,hot,bath,not-P ,not hot,stage,32,212,131,96,5,23320,4,1,Thank you.
A10LGIY5HFYMZM:32SCWG5HIIC452Y5TA7ER789NIBP6N,1459370918020,English,4,fast,car,neither P nor Q,neither fast nor slow,stage,0,120,48,54,5,12855,4,1,Thank you.
A10LGIY5HFYMZM:32SCWG5HIIC452Y5TA7ER789NIBP6N,1459370937787,English,5,full,band,Q and not-Q,empty and not empty,stage,0,1200,925,402,5,19764,4,1,Thank you.
A10LGIY5HFYMZM:32SCWG5HIIC452Y5TA7ER789NIBP6N,1459370957873,English,6,long,movie,neither P nor not-P,neither long nor not long,individual,50,240,207,121,4,20084,4,1,Thank you.
A3M43ST1JU11T9:3BV8HQ2ZZX9XIYS34RPH1CJEOWH6AU,1459378672487,English,1,long,movie,Q,short,individual,50,240,197,90,7,28644,7,4,
A3M43ST1JU11T9:3BV8HQ2ZZX9XIYS34RPH1CJEOWH6AU,1459378704235,English,2,hot,bath,neither Q nor not-Q,neither cold nor not cold,stage,32,212,176,90,5,31734,7,4,
A3M43ST1JU11T9:3BV8HQ2ZZX9XIYS34RPH1CJEOWH6AU,1459378724726,English,3,fast,car,Q and not-Q,slow and not slow,stage,0,120,89,30,2,20482,7,4,
A3M43ST1JU11T9:3BV8HQ2ZZX9XIYS34RPH1CJEOWH6AU,1459378751929,English,4,expensive,laptop,P and not-P,expensive and not expensive,individual,50,4000,3389,356,2,27191,7,4,
A3M43ST1JU11T9:3BV8HQ2ZZX9XIYS34RPH1CJEOWH6AU,1459378766302,English,5,tall,US male,P,tall,individual,48,96,88,74,7,14367,7,4,
A3M43ST1JU11T9:3BV8HQ2ZZX9XIYS34RPH1CJEOWH6AU,1459378791924,English,6,full,band,not-Q,not empty,stage,0,1200,563,267,3,25613,7,4,
AOBTFLJU2BEPR:3GA6AFUKOPWDV2DZRV1BBVUYR0BH3G,1459395538616,English,1,tall,US male,neither Q nor not-Q,neither short nor not short,individual,48,96,95,69,7,14655,10,2,
AOBTFLJU2BEPR:3GA6AFUKOPWDV2DZRV1BBVUYR0BH3G,1459395553790,English,2,hot,bath,neither P nor not-P,neither hot nor not hot,stage,32,212,143,110,5,15172,10,2,
AOBTFLJU2BEPR:3GA6AFUKOPWDV2DZRV1BBVUYR0BH3G,1459395566486,English,3,expensive,laptop,P and not-P,expensive and not expensive,individual,50,4000,3900,1350,5,12695,10,2,
AOBTFLJU2BEPR:3GA6AFUKOPWDV2DZRV1BBVUYR0BH3G,1459395581326,English,4,fast,car,Q,slow,stage,0,120,7,20,7,14839,10,2,
AOBTFLJU2BEPR:3GA6AFUKOPWDV2DZRV1BBVUYR0BH3G,1459395590656,English,5,long,movie,not-P ,not long,individual,50,240,207,175,7,9329,10,2,
AOBTFLJU2BEPR:3GA6AFUKOPWDV2DZRV1BBVUYR0BH3G,1459395604714,English,6,full,band,Q and not-Q,empty and not empty,stage,0,1200,566,801,6,14057,10,2,
AG7C4X3WKKBV:3JC6VJ2SACR1ZUSPZ8FC965ES125A9,1459372490783,English,1,hot,bath,not-Q,not cold,stage,32,212,181,77,3,30300,10,3,Thanks for the opportunity
AG7C4X3WKKBV:3JC6VJ2SACR1ZUSPZ8FC965ES125A9,1459372516279,English,2,full,band,P and not-P,full and not full,stage,0,1200,1173,1102,5,25496,10,3,Thanks for the opportunity
AG7C4X3WKKBV:3JC6VJ2SACR1ZUSPZ8FC965ES125A9,1459372547860,English,3,fast,car,neither P nor not-P,neither fast nor not fast,stage,0,120,47,40,3,31577,10,3,Thanks for the opportunity
AG7C4X3WKKBV:3JC6VJ2SACR1ZUSPZ8FC965ES125A9,1459372590275,English,4,long,movie,not-P ,not long,individual,50,240,54,60,2,42411,10,3,Thanks for the opportunity
AG7C4X3WKKBV:3JC6VJ2SACR1ZUSPZ8FC965ES125A9,1459372618442,English,5,expensive,laptop,P,expensive,individual,50,4000,929,701,6,28164,10,3,Thanks for the opportunity
AG7C4X3WKKBV:3JC6VJ2SACR1ZUSPZ8FC965ES125A9,1459372627104,English,6,tall,US male,Q and not-Q,short and not short,individual,48,96,72,68,5,8660,10,3,Thanks for the opportunity
A2O9DCJ35SXHXI:3C5W7UE9CGYB3ELO2HOCAGRYFHZXMT,1459375807675,English,1,hot,bath,not-Q,not cold,stage,32,212,148,115,2,31047,10,0,Good job.
A2O9DCJ35SXHXI:3C5W7UE9CGYB3ELO2HOCAGRYFHZXMT,1459375826873,English,2,long,movie,Q,short,individual,50,240,194,90,7,19194,10,0,Good job.
A2O9DCJ35SXHXI:3C5W7UE9CGYB3ELO2HOCAGRYFHZXMT,1459375841224,English,3,fast,car,Q and not-Q,slow and not slow,stage,0,120,40,50,1,14349,10,0,Good job.
A2O9DCJ35SXHXI:3C5W7UE9CGYB3ELO2HOCAGRYFHZXMT,1459375882379,English,4,full,band,neither P nor Q,neither full nor empty,stage,0,1200,1120,1000,2,41152,10,0,Good job.
A2O9DCJ35SXHXI:3C5W7UE9CGYB3ELO2HOCAGRYFHZXMT,1459375902826,English,5,expensive,laptop,P and not-P,expensive and not expensive,individual,50,4000,2254,604,1,20445,10,0,Good job.
A2O9DCJ35SXHXI:3C5W7UE9CGYB3ELO2HOCAGRYFHZXMT,1459375915832,English,6,tall,US male,neither P nor not-P,neither tall nor not tall,individual,48,96,77,70,1,13002,10,0,Good job.
A29PB2C8XD8TVG:3XCC1ODXDMJIRXX4LBP127PFOZ1QRZ,1459348962131,English,1,fast,car,neither P nor Q,neither fast nor slow,stage,0,120,93,40,3,16802,10,0,
A29PB2C8XD8TVG:3XCC1ODXDMJIRXX4LBP127PFOZ1QRZ,1459348976905,English,2,expensive,laptop,Q,cheap,individual,50,4000,3549,409,6,14758,10,0,
A29PB2C8XD8TVG:3XCC1ODXDMJIRXX4LBP127PFOZ1QRZ,1459348989765,English,3,long,movie,P,long,individual,50,240,215,140,6,12851,10,0,
A29PB2C8XD8TVG:3XCC1ODXDMJIRXX4LBP127PFOZ1QRZ,1459349001180,English,4,full,band,Q and not-Q,empty and not empty,stage,0,1200,726,146,2,11397,10,0,
A29PB2C8XD8TVG:3XCC1ODXDMJIRXX4LBP127PFOZ1QRZ,1459349015170,English,5,tall,US male,neither Q nor not-Q,neither short nor not short,individual,48,96,49,68,2,13979,10,0,
A29PB2C8XD8TVG:3XCC1ODXDMJIRXX4LBP127PFOZ1QRZ,1459349026903,English,6,hot,bath,P and not-P,hot and not hot,stage,32,212,122,106,2,11708,10,0,
A1ZF2GZ2ZRV8OY:3NC5L260MPUI3VFFF3X3WDGW6CNFO4,1459379772581,english,1,tall,US male,P and not-P,tall and not tall,individual,48,96,89,71,3,27363,9,0,no comments
A1ZF2GZ2ZRV8OY:3NC5L260MPUI3VFFF3X3WDGW6CNFO4,1459379793313,english,2,expensive,laptop,not-Q,not cheap,individual,50,4000,2861,1006,7,20726,9,0,no comments
A1ZF2GZ2ZRV8OY:3NC5L260MPUI3VFFF3X3WDGW6CNFO4,1459379822135,english,3,full,band,not-P ,not full,stage,0,1200,743,800,6,28817,9,0,no comments
A1ZF2GZ2ZRV8OY:3NC5L260MPUI3VFFF3X3WDGW6CNFO4,1459379838052,english,4,long,movie,neither P nor not-P,neither long nor not long,individual,50,240,52,125,5,15908,9,0,no comments
A1ZF2GZ2ZRV8OY:3NC5L260MPUI3VFFF3X3WDGW6CNFO4,1459379884185,english,5,fast,car,Q and not-Q,slow and not slow,stage,0,120,0,35,3,46127,9,0,no comments
A1ZF2GZ2ZRV8OY:3NC5L260MPUI3VFFF3X3WDGW6CNFO4,1459379896700,english,6,hot,bath,Q,cold,stage,32,212,104,75,7,12502,9,0,no comments
A2VTCD0KE6U9RA:3QBD8R3Z22R85FIQVM1K59J5HMA4O1,1459373703627,Eglish,1,fast,car,not-Q,not slow,stage,0,120,68,82,6,14008,8,4,
A2VTCD0KE6U9RA:3QBD8R3Z22R85FIQVM1K59J5HMA4O1,1459373715803,Eglish,2,expensive,laptop,neither P nor Q,neither expensive nor cheap,individual,50,4000,3884,677,5,12176,8,4,
A2VTCD0KE6U9RA:3QBD8R3Z22R85FIQVM1K59J5HMA4O1,1459373728411,Eglish,3,tall,US male,neither Q nor not-Q,neither short nor not short,individual,48,96,71,68,6,12608,8,4,
A2VTCD0KE6U9RA:3QBD8R3Z22R85FIQVM1K59J5HMA4O1,1459373744252,Eglish,4,long,movie,Q and not-Q,short and not short,individual,50,240,139,97,1,15841,8,4,
A2VTCD0KE6U9RA:3QBD8R3Z22R85FIQVM1K59J5HMA4O1,1459373756915,Eglish,5,full,band,not-P ,not full,stage,0,1200,1032,1102,2,12663,8,4,
A2VTCD0KE6U9RA:3QBD8R3Z22R85FIQVM1K59J5HMA4O1,1459373766869,Eglish,6,hot,bath,P and not-P,hot and not hot,stage,32,212,115,91,1,9954,8,4,
A221ZCC0O43BJT:308Q0PEVB9LZ6ZDZEMK62KYZR3EI91,1459348701548,english,1,long,movie,neither Q nor not-Q,neither short nor not short,individual,50,240,78,96,1,22522,7,7,
A221ZCC0O43BJT:308Q0PEVB9LZ6ZDZEMK62KYZR3EI91,1459348723212,english,2,expensive,laptop,Q and not-Q,cheap and not cheap,individual,50,4000,1466,492,4,21657,7,7,
A221ZCC0O43BJT:308Q0PEVB9LZ6ZDZEMK62KYZR3EI91,1459348739218,english,3,tall,US male,not-Q,not short,individual,48,96,81,75,7,15998,7,7,
A221ZCC0O43BJT:308Q0PEVB9LZ6ZDZEMK62KYZR3EI91,1459348770948,english,4,full,band,Q,empty,stage,0,1200,856,286,7,31723,7,7,
A221ZCC0O43BJT:308Q0PEVB9LZ6ZDZEMK62KYZR3EI91,1459348784647,english,5,fast,car,P and not-P,fast and not fast,stage,0,120,73,60,3,13692,7,7,
A221ZCC0O43BJT:308Q0PEVB9LZ6ZDZEMK62KYZR3EI91,1459348801083,english,6,hot,bath,P,hot,stage,32,212,84,105,7,16431,7,7,
A2DPKKEEW2I6QK:3K2755HG5TBRZYOQPUJNLJ4X2W1FDO,1459349890152,English,1,tall,US male,not-Q,not short,individual,48,96,82,73,5,7516,5,3,
A2DPKKEEW2I6QK:3K2755HG5TBRZYOQPUJNLJ4X2W1FDO,1459349900184,English,2,full,band,Q,empty,stage,0,1200,197,8,6,10032,5,3,
A2DPKKEEW2I6QK:3K2755HG5TBRZYOQPUJNLJ4X2W1FDO,1459349909303,English,3,fast,car,neither Q nor not-Q,neither slow nor not slow,stage,0,120,35,33,4,9119,5,3,
A2DPKKEEW2I6QK:3K2755HG5TBRZYOQPUJNLJ4X2W1FDO,1459349919223,English,4,expensive,laptop,Q and not-Q,cheap and not cheap,individual,50,4000,213,485,5,9920,5,3,
A2DPKKEEW2I6QK:3K2755HG5TBRZYOQPUJNLJ4X2W1FDO,1459349936774,English,5,long,movie,P,long,individual,50,240,192,113,4,17551,5,3,
A2DPKKEEW2I6QK:3K2755HG5TBRZYOQPUJNLJ4X2W1FDO,1459349945395,English,6,hot,bath,P and not-P,hot and not hot,stage,32,212,124,77,4,8621,5,3,
A3OJCWC178255T:3G0WWMR1UWSXCZ5CS48KTNK5N2CQNB,1459348906629,english,1,tall,US male,Q,short,individual,48,96,91,64,6,12771,8,3,no
A3OJCWC178255T:3G0WWMR1UWSXCZ5CS48KTNK5N2CQNB,1459348924096,english,2,full,band,not-P ,not full,stage,0,1200,87,804,5,17454,8,3,no
A3OJCWC178255T:3G0WWMR1UWSXCZ5CS48KTNK5N2CQNB,1459348938218,english,3,long,movie,neither Q nor not-Q,neither short nor not short,individual,50,240,139,139,4,14115,8,3,no
A3OJCWC178255T:3G0WWMR1UWSXCZ5CS48KTNK5N2CQNB,1459348952654,english,4,hot,bath,neither P nor not-P,neither hot nor not hot,stage,32,212,171,90,4,14430,8,3,no
A3OJCWC178255T:3G0WWMR1UWSXCZ5CS48KTNK5N2CQNB,1459348966781,english,5,expensive,laptop,P and not-P,expensive and not expensive,individual,50,4000,1001,474,5,14120,8,3,no
A3OJCWC178255T:3G0WWMR1UWSXCZ5CS48KTNK5N2CQNB,1459348978775,english,6,fast,car,neither P nor Q,neither fast nor slow,stage,0,120,113,31,4,11986,8,3,no
AB6GY896TYRBQ:3EJJQNKU9SD5E4Y12L27TTXEXEFHR8,1459370540381,English,1,long,movie,neither P nor Q,neither long nor short,individual,50,240,104,90,5,10802,8,3,Thank you!!
AB6GY896TYRBQ:3EJJQNKU9SD5E4Y12L27TTXEXEFHR8,1459370543900,English,2,hot,bath,neither P nor not-P,neither hot nor not hot,stage,32,212,199,116,4,3518,8,3,Thank you!!
AB6GY896TYRBQ:3EJJQNKU9SD5E4Y12L27TTXEXEFHR8,1459370549525,English,3,expensive,laptop,P,expensive,individual,50,4000,3953,867,5,5624,8,3,Thank you!!
AB6GY896TYRBQ:3EJJQNKU9SD5E4Y12L27TTXEXEFHR8,1459370553341,English,4,fast,car,P and not-P,fast and not fast,stage,0,120,23,60,5,3816,8,3,Thank you!!
AB6GY896TYRBQ:3EJJQNKU9SD5E4Y12L27TTXEXEFHR8,1459370563651,English,5,tall,US male,not-P ,not tall,individual,48,96,50,70,6,10309,8,3,Thank you!!
AB6GY896TYRBQ:3EJJQNKU9SD5E4Y12L27TTXEXEFHR8,1459370567844,English,6,full,band,neither Q nor not-Q,neither empty nor not empty,stage,0,1200,225,575,5,4192,8,3,Thank you!!
A1MS98IHMLG24F:3IUZPWIU1PF1OQGV70FATKLNHA1WKX,1459376323996,English,1,tall,US male,P,tall,individual,48,96,66,74,6,12764,10,0,
A1MS98IHMLG24F:3IUZPWIU1PF1OQGV70FATKLNHA1WKX,1459376340887,English,2,fast,car,Q and not-Q,slow and not slow,stage,0,120,105,50,1,16889,10,0,
A1MS98IHMLG24F:3IUZPWIU1PF1OQGV70FATKLNHA1WKX,1459376354731,English,3,long,movie,neither Q nor not-Q,neither short nor not short,individual,50,240,77,90,1,13843,10,0,
A1MS98IHMLG24F:3IUZPWIU1PF1OQGV70FATKLNHA1WKX,1459376367828,English,4,hot,bath,neither P nor not-P,neither hot nor not hot,stage,32,212,166,65,1,13096,10,0,
A1MS98IHMLG24F:3IUZPWIU1PF1OQGV70FATKLNHA1WKX,1459376393077,English,5,expensive,laptop,not-Q,not cheap,individual,50,4000,2640,2500,7,25247,10,0,
A1MS98IHMLG24F:3IUZPWIU1PF1OQGV70FATKLNHA1WKX,1459376410373,English,6,full,band,not-P ,not full,stage,0,1200,220,50,6,17293,10,0,
A38QMA26BG1KL0:3WMOAN2SRC5PH71TE32UZAJD4W3NVI,1459374644911,english,1,full,band,P and not-P,full and not full,stage,0,1200,987,1008,2,32573,10,3,Fun task! I found it interesting. 
A38QMA26BG1KL0:3WMOAN2SRC5PH71TE32UZAJD4W3NVI,1459374659902,english,2,hot,bath,Q,cold,stage,32,212,106,67,6,14990,10,3,Fun task! I found it interesting. 
A38QMA26BG1KL0:3WMOAN2SRC5PH71TE32UZAJD4W3NVI,1459374672230,english,3,fast,car,not-P ,not fast,stage,0,120,74,45,3,12327,10,3,Fun task! I found it interesting. 
A38QMA26BG1KL0:3WMOAN2SRC5PH71TE32UZAJD4W3NVI,1459374687166,english,4,expensive,laptop,P,expensive,individual,50,4000,1899,1150,7,14935,10,3,Fun task! I found it interesting. 
A38QMA26BG1KL0:3WMOAN2SRC5PH71TE32UZAJD4W3NVI,1459374701534,english,5,long,movie,Q and not-Q,short and not short,individual,50,240,83,85,1,14367,10,3,Fun task! I found it interesting. 
A38QMA26BG1KL0:3WMOAN2SRC5PH71TE32UZAJD4W3NVI,1459374713190,english,6,tall,US male,not-Q,not short,individual,48,96,70,69,5,11656,10,3,Fun task! I found it interesting. 
ABMX8XUNPR3LP:3YZ8UPK3VUU6DOF2KNJBNDNIRJ4CUK,1459348885277,English,1,hot,bath,neither P nor Q,neither hot nor cold,stage,32,212,85,98,6,12262,10,8,
ABMX8XUNPR3LP:3YZ8UPK3VUU6DOF2KNJBNDNIRJ4CUK,1459348903521,English,2,full,band,P,full,stage,0,1200,282,1200,7,18238,10,8,
ABMX8XUNPR3LP:3YZ8UPK3VUU6DOF2KNJBNDNIRJ4CUK,1459348918918,English,3,expensive,laptop,P and not-P,expensive and not expensive,individual,50,4000,1520,968,2,15394,10,8,
ABMX8XUNPR3LP:3YZ8UPK3VUU6DOF2KNJBNDNIRJ4CUK,1459348934676,English,4,tall,US male,Q,short,individual,48,96,62,65,7,15755,10,8,
ABMX8XUNPR3LP:3YZ8UPK3VUU6DOF2KNJBNDNIRJ4CUK,1459348945050,English,5,long,movie,not-Q,not short,individual,50,240,122,150,5,10371,10,8,
ABMX8XUNPR3LP:3YZ8UPK3VUU6DOF2KNJBNDNIRJ4CUK,1459348954082,English,6,fast,car,not-P ,not fast,stage,0,120,57,30,2,9027,10,8,
AFNN1QPV1CWV0:33CKWXB73KS6HOE622K7VFZUCRY116,1459383443849,English,1,expensive,laptop,P,expensive,individual,50,4000,1115,504,1,40695,5,3,
AFNN1QPV1CWV0:33CKWXB73KS6HOE622K7VFZUCRY116,1459383470831,English,2,full,band,neither P nor Q,neither full nor empty,stage,0,1200,1031,604,7,26981,5,3,
AFNN1QPV1CWV0:33CKWXB73KS6HOE622K7VFZUCRY116,1459383485003,English,3,long,movie,neither Q nor not-Q,neither short nor not short,individual,50,240,225,110,6,14170,5,3,
AFNN1QPV1CWV0:33CKWXB73KS6HOE622K7VFZUCRY116,1459383506088,English,4,tall,US male,Q and not-Q,short and not short,individual,48,96,88,69,1,21083,5,3,
AFNN1QPV1CWV0:33CKWXB73KS6HOE622K7VFZUCRY116,1459383521121,English,5,fast,car,not-Q,not slow,stage,0,120,54,65,2,15032,5,3,
AFNN1QPV1CWV0:33CKWXB73KS6HOE622K7VFZUCRY116,1459383537318,English,6,hot,bath,neither P nor not-P,neither hot nor not hot,stage,32,212,204,99,1,16195,5,3,
A7RQ5DNXWAA74:3LOTDFNYA87Q84OH6PODD7TI9C7WFE,1459351650051,English,1,expensive,laptop,P and not-P,expensive and not expensive,individual,50,4000,3747,1210,3,18593,5,2,No.
A7RQ5DNXWAA74:3LOTDFNYA87Q84OH6PODD7TI9C7WFE,1459351669530,English,2,full,band,Q,empty,stage,0,1200,582,22,6,19478,5,2,No.
A7RQ5DNXWAA74:3LOTDFNYA87Q84OH6PODD7TI9C7WFE,1459351689534,English,3,tall,US male,neither Q nor not-Q,neither short nor not short,individual,48,96,91,68,3,20003,5,2,No.
A7RQ5DNXWAA74:3LOTDFNYA87Q84OH6PODD7TI9C7WFE,1459351707153,English,4,fast,car,not-Q,not slow,stage,0,120,101,44,2,17618,5,2,No.
A7RQ5DNXWAA74:3LOTDFNYA87Q84OH6PODD7TI9C7WFE,1459351728988,English,5,hot,bath,not-P ,not hot,stage,32,212,83,81,5,21833,5,2,No.
A7RQ5DNXWAA74:3LOTDFNYA87Q84OH6PODD7TI9C7WFE,1459351752751,English,6,long,movie,neither P nor not-P,neither long nor not long,individual,50,240,114,97,5,23762,5,2,No.
A16WTL2DOIQ5SV:3KIBXJ1WD62TJH7TGEO0CQ81E83KOA,1459376423770,English,1,hot,bath,not-Q,not cold,stage,32,212,129,92,4,8131,10,0,I enjoyed doing your survey. Thank you! 
A16WTL2DOIQ5SV:3KIBXJ1WD62TJH7TGEO0CQ81E83KOA,1459376486331,English,2,long,movie,not-P ,not long,individual,50,240,116,103,4,62554,10,0,I enjoyed doing your survey. Thank you! 
A16WTL2DOIQ5SV:3KIBXJ1WD62TJH7TGEO0CQ81E83KOA,1459376544644,English,3,tall,US male,neither P nor Q,neither tall nor short,individual,48,96,92,70,5,58304,10,0,I enjoyed doing your survey. Thank you! 
A16WTL2DOIQ5SV:3KIBXJ1WD62TJH7TGEO0CQ81E83KOA,1459376591301,English,4,full,band,P,full,stage,0,1200,1127,1200,6,46652,10,0,I enjoyed doing your survey. Thank you! 
A16WTL2DOIQ5SV:3KIBXJ1WD62TJH7TGEO0CQ81E83KOA,1459376601748,English,5,expensive,laptop,Q,cheap,individual,50,4000,1455,419,5,10436,10,0,I enjoyed doing your survey. Thank you! 
