id,itemTime,language,trial,antonymPair,scenarioLabel,expressionLabel,expression,predicateType,labelLower,labelHigher,startingValue,answer,naturalness,RT,engagement,difficulty,comments
A23TQQBMP0WE0X:3H0W84IWBLATUU7ZCKU18Q0152CERM,1459784778576,English,1,hot,bath,neither Q nor not-Q,neither cold nor not cold,stage,extremely cold,extremely hot,0.6086501624846121,0.48,2,12795,5,0,no
A23TQQBMP0WE0X:3H0W84IWBLATUU7ZCKU18Q0152CERM,1459784789628,English,2,long,movie,P,long,individual,extremely short,extremely long,0.6786589994119531,0.729,5,11036,5,0,no
A23TQQBMP0WE0X:3H0W84IWBLATUU7ZCKU18Q0152CERM,1459784797394,English,3,tall,US male,Q,short,individual,extremely short,extremely tall,0.4316699670943158,0.234,7,7750,5,0,no
A23TQQBMP0WE0X:3H0W84IWBLATUU7ZCKU18Q0152CERM,1459784812313,English,4,fast,car,P and not-P,fast and not fast,stage,extremely slow,extremely fast,0.32178058205750604,0.487,1,14910,5,0,no
A23TQQBMP0WE0X:3H0W84IWBLATUU7ZCKU18Q0152CERM,1459784822663,English,5,full,band,neither P nor Q,neither full nor empty,stage,no one,sold out,0.9704185147417418,0.493,3,10336,5,0,no
A23TQQBMP0WE0X:3H0W84IWBLATUU7ZCKU18Q0152CERM,1459784833588,English,6,expensive,laptop,not-P ,not expensive,individual,almost nothing,an enormous amount,0.4753906781016435,0.49,6,10917,5,0,no
AJZ9B93NZ2IST:3PMBY0YE28B8TWRZMCOKRH04E5CC9P,1459788381901,english,1,full,band,neither Q nor not-Q,neither empty nor not empty,stage,no one,sold out,0.6332957235507082,0.513,3,24914,5,1,
AJZ9B93NZ2IST:3PMBY0YE28B8TWRZMCOKRH04E5CC9P,1459788403094,english,2,fast,car,Q,slow,stage,extremely slow,extremely fast,0.7705558585499286,0.209,6,21188,5,1,
AJZ9B93NZ2IST:3PMBY0YE28B8TWRZMCOKRH04E5CC9P,1459788425265,english,3,tall,US male,P and not-P,tall and not tall,individual,extremely short,extremely tall,0.5663407831186578,0.752,2,22167,5,1,
AJZ9B93NZ2IST:3PMBY0YE28B8TWRZMCOKRH04E5CC9P,1459788453692,english,4,expensive,laptop,neither P nor Q,neither expensive nor cheap,individual,almost nothing,an enormous amount,0.7700645478801069,0.514,4,28422,5,1,
AJZ9B93NZ2IST:3PMBY0YE28B8TWRZMCOKRH04E5CC9P,1459788471452,english,5,long,movie,P,long,individual,extremely short,extremely long,0.029221728579045037,0.79,7,17755,5,1,
AJZ9B93NZ2IST:3PMBY0YE28B8TWRZMCOKRH04E5CC9P,1459788488575,english,6,hot,bath,Q and not-Q,cold and not cold,stage,extremely cold,extremely hot,0.6161881196824042,0.202,2,17119,5,1,
AOUBZSI237USA:3QY5DC2MXSSDG0ZCBP9CVJ8LO2UFU8,1459781768687,English,1,hot,bath,Q and not-Q,cold and not cold,stage,extremely cold,extremely hot,0.6668248737790825,0.495,2,13548,8,2,No
AOUBZSI237USA:3QY5DC2MXSSDG0ZCBP9CVJ8LO2UFU8,1459781786069,English,2,full,band,not-P ,not full,stage,no one,sold out,0.21222440394474562,0.651,4,17380,8,2,No
AOUBZSI237USA:3QY5DC2MXSSDG0ZCBP9CVJ8LO2UFU8,1459781795141,English,3,long,movie,P,long,individual,extremely short,extremely long,0.02947449520498835,0.785,6,9070,8,2,No
AOUBZSI237USA:3QY5DC2MXSSDG0ZCBP9CVJ8LO2UFU8,1459781803448,English,4,expensive,laptop,not-Q,not cheap,individual,almost nothing,an enormous amount,0.5057240943665517,0.742,6,8306,8,2,No
AOUBZSI237USA:3QY5DC2MXSSDG0ZCBP9CVJ8LO2UFU8,1459781810728,English,5,fast,car,neither Q nor not-Q,neither slow nor not slow,stage,extremely slow,extremely fast,0.5193165909112478,0.498,2,7279,8,2,No
AOUBZSI237USA:3QY5DC2MXSSDG0ZCBP9CVJ8LO2UFU8,1459781822664,English,6,tall,US male,Q,short,individual,extremely short,extremely tall,0.8305153285522915,0.213,6,11934,8,2,No
A129FZ067I43UD:3OWEPKL08AKN6H0XW5ZETW3AIII7N4,1459781361519,English,1,expensive,laptop,neither Q nor not-Q,neither cheap nor not cheap,individual,almost nothing,an enormous amount,0.8858437365420821,0.484,3,21135,8,0,Thanks :)
A129FZ067I43UD:3OWEPKL08AKN6H0XW5ZETW3AIII7N4,1459781378445,English,2,full,band,Q,empty,stage,no one,sold out,0.5041994190490635,0.0,4,16924,8,0,Thanks :)
A129FZ067I43UD:3OWEPKL08AKN6H0XW5ZETW3AIII7N4,1459781387305,English,3,fast,car,Q and not-Q,slow and not slow,stage,extremely slow,extremely fast,0.7825134094702986,0.486,1,8858,8,0,Thanks :)
A129FZ067I43UD:3OWEPKL08AKN6H0XW5ZETW3AIII7N4,1459781403113,English,4,long,movie,not-Q,not short,individual,extremely short,extremely long,0.4282726834988684,0.635,4,15806,8,0,Thanks :)
A129FZ067I43UD:3OWEPKL08AKN6H0XW5ZETW3AIII7N4,1459781418746,English,5,hot,bath,neither P nor not-P,neither hot nor not hot,stage,extremely cold,extremely hot,0.39232102249497003,0.5,2,15632,8,0,Thanks :)
A129FZ067I43UD:3OWEPKL08AKN6H0XW5ZETW3AIII7N4,1459781428576,English,6,tall,US male,P and not-P,tall and not tall,individual,extremely short,extremely tall,0.36171201855569035,0.512,1,9829,8,0,Thanks :)
ALDQRWYZ8KQ9A:373ERPL3YPGVJDPW2FJW7C028CXRTN,1459782894560,English,1,full,band,neither P nor not-P,neither full nor not full,stage,no one,sold out,0.01264742042075917,0.587,3,30417,10,0,
ALDQRWYZ8KQ9A:373ERPL3YPGVJDPW2FJW7C028CXRTN,1459782922427,English,2,fast,car,Q and not-Q,slow and not slow,stage,extremely slow,extremely fast,0.5770437570651321,0.412,1,27867,10,0,
ALDQRWYZ8KQ9A:373ERPL3YPGVJDPW2FJW7C028CXRTN,1459782936541,English,3,expensive,laptop,P and not-P,expensive and not expensive,individual,almost nothing,an enormous amount,0.3268485465395401,0.596,2,14114,10,0,
ALDQRWYZ8KQ9A:373ERPL3YPGVJDPW2FJW7C028CXRTN,1459782952839,English,4,hot,bath,neither P nor Q,neither hot nor cold,stage,extremely cold,extremely hot,0.38162705220732285,0.62,5,16298,10,0,
ALDQRWYZ8KQ9A:373ERPL3YPGVJDPW2FJW7C028CXRTN,1459782962606,English,5,long,movie,P,long,individual,extremely short,extremely long,0.96934521195405,0.851,7,9767,10,0,
ALDQRWYZ8KQ9A:373ERPL3YPGVJDPW2FJW7C028CXRTN,1459782975838,English,6,tall,US male,Q,short,individual,extremely short,extremely tall,0.8517869983084285,0.242,7,13232,10,0,
A2AWNQSIRLYSGQ:3UWN2HHPUZD9PFKPK8XPONZ65XGNSU,1459788888276,English,1,tall,US male,P and not-P,tall and not tall,individual,extremely short,extremely tall,0.3516313077416271,0.507,3,14223,6,0,
A2AWNQSIRLYSGQ:3UWN2HHPUZD9PFKPK8XPONZ65XGNSU,1459788901716,English,2,full,band,not-P ,not full,stage,no one,sold out,0.036890875082463026,0.352,4,13437,6,0,
A2AWNQSIRLYSGQ:3UWN2HHPUZD9PFKPK8XPONZ65XGNSU,1459788910627,English,3,hot,bath,neither Q nor not-Q,neither cold nor not cold,stage,extremely cold,extremely hot,0.05204167519696057,0.513,4,8910,6,0,
A2AWNQSIRLYSGQ:3UWN2HHPUZD9PFKPK8XPONZ65XGNSU,1459788920960,English,4,long,movie,P,long,individual,extremely short,extremely long,0.15559440618380904,0.806,5,10331,6,0,
A2AWNQSIRLYSGQ:3UWN2HHPUZD9PFKPK8XPONZ65XGNSU,1459788929664,English,5,fast,car,not-Q,not slow,stage,extremely slow,extremely fast,0.37183213303796947,0.55,3,8703,6,0,
A2AWNQSIRLYSGQ:3UWN2HHPUZD9PFKPK8XPONZ65XGNSU,1459788939921,English,6,expensive,laptop,neither P nor not-P,neither expensive nor not expensive,individual,almost nothing,an enormous amount,0.06869091303087771,0.493,3,10256,6,0,
A2WKZI3JQCE3Z6:3TVSS0C0E280R96I19T2UB8J0RBWTU,1459780745903,English,1,long,movie,P and not-P,long and not long,individual,extremely short,extremely long,0.7296270952394279,0.485,1,9463,10,0,
A2WKZI3JQCE3Z6:3TVSS0C0E280R96I19T2UB8J0RBWTU,1459780752607,English,2,hot,bath,Q and not-Q,cold and not cold,stage,extremely cold,extremely hot,0.80694386540305,0.496,1,6699,10,0,
A2WKZI3JQCE3Z6:3TVSS0C0E280R96I19T2UB8J0RBWTU,1459780765254,English,3,full,band,Q,empty,stage,no one,sold out,0.7650011252317672,0.0,2,12640,10,0,
A2WKZI3JQCE3Z6:3TVSS0C0E280R96I19T2UB8J0RBWTU,1459780777828,English,4,tall,US male,not-Q,not short,individual,extremely short,extremely tall,0.7293420677760475,0.726,6,12571,10,0,
A2WKZI3JQCE3Z6:3TVSS0C0E280R96I19T2UB8J0RBWTU,1459780790459,English,5,expensive,laptop,neither Q nor not-Q,neither cheap nor not cheap,individual,almost nothing,an enormous amount,0.47978163037922783,0.476,2,12625,10,0,
A2WKZI3JQCE3Z6:3TVSS0C0E280R96I19T2UB8J0RBWTU,1459780797158,English,6,fast,car,neither P nor not-P,neither fast nor not fast,stage,extremely slow,extremely fast,0.9246147567435027,0.498,1,6693,10,0,
A002160837SWJFPIAI7L7:36W0OB37HXMEGVKSC2WKFWZD6ZLZHE,1459781455014,english,1,long,movie,neither Q nor not-Q,neither short nor not short,individual,extremely short,extremely long,0.3955234846732587,0.477,4,8140,7,0,"no
"
A002160837SWJFPIAI7L7:36W0OB37HXMEGVKSC2WKFWZD6ZLZHE,1459781461584,english,2,expensive,laptop,not-Q,not cheap,individual,almost nothing,an enormous amount,0.36654050811566274,0.74,7,6569,7,0,"no
"
A002160837SWJFPIAI7L7:36W0OB37HXMEGVKSC2WKFWZD6ZLZHE,1459781469497,english,3,fast,car,Q and not-Q,slow and not slow,stage,extremely slow,extremely fast,0.43835315017686427,0.477,1,7911,7,0,"no
"
A002160837SWJFPIAI7L7:36W0OB37HXMEGVKSC2WKFWZD6ZLZHE,1459781473953,english,4,tall,US male,Q,short,individual,extremely short,extremely tall,0.3191568080809226,0.289,7,4456,7,0,"no
"
A002160837SWJFPIAI7L7:36W0OB37HXMEGVKSC2WKFWZD6ZLZHE,1459781485389,english,5,full,band,P,full,stage,no one,sold out,0.6396145339664514,1.0,7,11435,7,0,"no
"
A002160837SWJFPIAI7L7:36W0OB37HXMEGVKSC2WKFWZD6ZLZHE,1459781494069,english,6,hot,bath,neither P nor Q,neither hot nor cold,stage,extremely cold,extremely hot,0.9763545611156381,0.485,4,8679,7,0,"no
"
A2G57M3XD1AIBS:39ASUFLU6YFDRQTBLJ0TX8MP6KPXEV,1459792897566,english,1,long,movie,neither P nor not-P,neither long nor not long,individual,extremely short,extremely long,0.5984621600413405,0.489,7,17812,10,0,good survey
A2G57M3XD1AIBS:39ASUFLU6YFDRQTBLJ0TX8MP6KPXEV,1459792909237,english,2,fast,car,Q and not-Q,slow and not slow,stage,extremely slow,extremely fast,0.8611172635609647,0.472,1,11667,10,0,good survey
A2G57M3XD1AIBS:39ASUFLU6YFDRQTBLJ0TX8MP6KPXEV,1459792919496,english,3,tall,US male,not-Q,not short,individual,extremely short,extremely tall,0.7353866706918475,0.797,7,10256,10,0,good survey
A2G57M3XD1AIBS:39ASUFLU6YFDRQTBLJ0TX8MP6KPXEV,1459792927439,english,4,full,band,Q,empty,stage,no one,sold out,0.18078479973980066,0.006,7,7942,10,0,good survey
A2G57M3XD1AIBS:39ASUFLU6YFDRQTBLJ0TX8MP6KPXEV,1459792935628,english,5,hot,bath,not-P ,not hot,stage,extremely cold,extremely hot,0.9448386774863087,0.37,6,8186,10,0,good survey
A2G57M3XD1AIBS:39ASUFLU6YFDRQTBLJ0TX8MP6KPXEV,1459792941431,english,6,expensive,laptop,neither P nor Q,neither expensive nor cheap,individual,almost nothing,an enormous amount,0.5738791174220768,0.502,7,5801,10,0,good survey
AJAOE1PSNKGUE:33L7PJKHCH6P18A036DWGV5XILUT80,1459788709522,Telugu,1,expensive,laptop,neither P nor not-P,neither expensive nor not expensive,individual,almost nothing,an enormous amount,0.07092397722274568,0.502,3,13874,4,3,nothing.thanks
AJAOE1PSNKGUE:33L7PJKHCH6P18A036DWGV5XILUT80,1459788720409,Telugu,2,fast,car,P,fast,stage,extremely slow,extremely fast,0.4036130761234994,0.656,5,10881,4,3,nothing.thanks
AJAOE1PSNKGUE:33L7PJKHCH6P18A036DWGV5XILUT80,1459788728800,Telugu,3,tall,US male,not-P ,not tall,individual,extremely short,extremely tall,0.2670149973654177,0.307,1,8386,4,3,nothing.thanks
AJAOE1PSNKGUE:33L7PJKHCH6P18A036DWGV5XILUT80,1459788735913,Telugu,4,long,movie,not-Q,not short,individual,extremely short,extremely long,0.4949863968753627,0.691,2,7109,4,3,nothing.thanks
AJAOE1PSNKGUE:33L7PJKHCH6P18A036DWGV5XILUT80,1459788743377,Telugu,5,hot,bath,P and not-P,hot and not hot,stage,extremely cold,extremely hot,0.07624989698964402,0.521,1,7457,4,3,nothing.thanks
AJAOE1PSNKGUE:33L7PJKHCH6P18A036DWGV5XILUT80,1459788752970,Telugu,6,full,band,Q,empty,stage,no one,sold out,0.35088160809525515,0.0,7,9586,4,3,nothing.thanks
A3FPXLLF0B8CIC:3MTMREQS4WQVCD79V92LZ6IRC2UAWR,1459787295458,English,1,tall,US male,neither Q nor not-Q,neither short nor not short,individual,extremely short,extremely tall,0.05896672389723112,0.531,5,11846,8,0,
A3FPXLLF0B8CIC:3MTMREQS4WQVCD79V92LZ6IRC2UAWR,1459787304206,English,2,hot,bath,neither P nor Q,neither hot nor cold,stage,extremely cold,extremely hot,0.7066532101151286,0.51,6,8746,8,0,
A3FPXLLF0B8CIC:3MTMREQS4WQVCD79V92LZ6IRC2UAWR,1459787312804,English,3,long,movie,P,long,individual,extremely short,extremely long,0.41057778834851644,0.777,7,8598,8,0,
A3FPXLLF0B8CIC:3MTMREQS4WQVCD79V92LZ6IRC2UAWR,1459787320223,English,4,fast,car,Q,slow,stage,extremely slow,extremely fast,0.9859011395026418,0.274,7,7403,8,0,
A3FPXLLF0B8CIC:3MTMREQS4WQVCD79V92LZ6IRC2UAWR,1459787329188,English,5,full,band,P and not-P,full and not full,stage,no one,sold out,0.4289220227763293,0.438,2,8965,8,0,
A3FPXLLF0B8CIC:3MTMREQS4WQVCD79V92LZ6IRC2UAWR,1459787336872,English,6,expensive,laptop,not-P ,not expensive,individual,almost nothing,an enormous amount,0.6481976291448441,0.141,5,7684,8,0,
ABE0TGK79GGLA:3FE2ERCCZYGUU849T6T887U08MSOP6,1459781057280,English,1,expensive,laptop,neither Q nor not-Q,neither cheap nor not cheap,individual,almost nothing,an enormous amount,0.8122984095185015,0.509,2,24712,8,2,
ABE0TGK79GGLA:3FE2ERCCZYGUU849T6T887U08MSOP6,1459781066903,English,2,fast,car,neither P nor not-P,neither fast nor not fast,stage,extremely slow,extremely fast,0.4002203828512252,0.516,2,9622,8,2,
ABE0TGK79GGLA:3FE2ERCCZYGUU849T6T887U08MSOP6,1459781081807,English,3,long,movie,not-P ,not long,individual,extremely short,extremely long,0.40945951283809334,0.332,6,14903,8,2,
ABE0TGK79GGLA:3FE2ERCCZYGUU849T6T887U08MSOP6,1459781100088,English,4,full,band,P,full,stage,no one,sold out,0.8990822776733849,0.917,6,18277,8,2,
ABE0TGK79GGLA:3FE2ERCCZYGUU849T6T887U08MSOP6,1459781112432,English,5,hot,bath,P and not-P,hot and not hot,stage,extremely cold,extremely hot,0.9627125226576585,0.508,1,12342,8,2,
ABE0TGK79GGLA:3FE2ERCCZYGUU849T6T887U08MSOP6,1459781124296,English,6,tall,US male,Q,short,individual,extremely short,extremely tall,0.3376502571539015,0.308,6,11863,8,2,
A321AGEY23DDEH:36TFCYNS45IPB0KDBK8ZIBJ2YZNHXZ,1459782396669,English,1,full,band,Q,empty,stage,no one,sold out,0.004014223454142485,0.0,7,8491,6,1,Thank you!
A321AGEY23DDEH:36TFCYNS45IPB0KDBK8ZIBJ2YZNHXZ,1459782409080,English,2,expensive,laptop,not-Q,not cheap,individual,almost nothing,an enormous amount,0.6233838592927929,0.524,7,12409,6,1,Thank you!
A321AGEY23DDEH:36TFCYNS45IPB0KDBK8ZIBJ2YZNHXZ,1459782418944,English,3,fast,car,neither P nor not-P,neither fast nor not fast,stage,extremely slow,extremely fast,0.3427590235362812,0.522,3,9861,6,1,Thank you!
A321AGEY23DDEH:36TFCYNS45IPB0KDBK8ZIBJ2YZNHXZ,1459782424794,English,4,hot,bath,P,hot,stage,extremely cold,extremely hot,0.537887822853053,0.749,7,5848,6,1,Thank you!
A321AGEY23DDEH:36TFCYNS45IPB0KDBK8ZIBJ2YZNHXZ,1459782432762,English,5,tall,US male,P and not-P,tall and not tall,individual,extremely short,extremely tall,0.35223162906337735,0.511,2,7966,6,1,Thank you!
A321AGEY23DDEH:36TFCYNS45IPB0KDBK8ZIBJ2YZNHXZ,1459782439689,English,6,long,movie,neither Q nor not-Q,neither short nor not short,individual,extremely short,extremely long,0.4575274244287104,0.478,2,6925,6,1,Thank you!
A2FM87EO99KRQ7:3TESA3PJ32I092MKOAM3ZZB08H1MMS,1459780378422,English,1,tall,US male,P,tall,individual,extremely short,extremely tall,0.46073089779454435,0.721,7,14837,8,0,"no comments
"
A2FM87EO99KRQ7:3TESA3PJ32I092MKOAM3ZZB08H1MMS,1459780390829,English,2,expensive,laptop,P and not-P,expensive and not expensive,individual,almost nothing,an enormous amount,0.1965257918292851,0.504,1,12404,8,0,"no comments
"
A2FM87EO99KRQ7:3TESA3PJ32I092MKOAM3ZZB08H1MMS,1459780398583,English,3,fast,car,not-Q,not slow,stage,extremely slow,extremely fast,0.14749776154045446,0.767,5,7751,8,0,"no comments
"
A2FM87EO99KRQ7:3TESA3PJ32I092MKOAM3ZZB08H1MMS,1459780406439,English,4,full,band,not-P ,not full,stage,no one,sold out,0.3910057990732896,0.229,7,7854,8,0,"no comments
"
A2FM87EO99KRQ7:3TESA3PJ32I092MKOAM3ZZB08H1MMS,1459780413647,English,5,hot,bath,Q,cold,stage,extremely cold,extremely hot,0.14564221721566528,0.1,7,7206,8,0,"no comments
"
A2FM87EO99KRQ7:3TESA3PJ32I092MKOAM3ZZB08H1MMS,1459780420606,English,6,long,movie,neither P nor Q,neither long nor short,individual,extremely short,extremely long,0.6410365534813405,0.494,5,6957,8,0,"no comments
"
A2U51SPL4KNIIX:3YJ6NA41JCOGTXDCDT130BDE9SKJPK,1459784357262,"english, vietnamese",1,long,movie,P,long,individual,extremely short,extremely long,0.4301984890405607,0.699,6,15767,8,5,
A2U51SPL4KNIIX:3YJ6NA41JCOGTXDCDT130BDE9SKJPK,1459784372145,"english, vietnamese",2,expensive,laptop,P and not-P,expensive and not expensive,individual,almost nothing,an enormous amount,0.15886214048353386,0.511,2,14879,8,5,
A2U51SPL4KNIIX:3YJ6NA41JCOGTXDCDT130BDE9SKJPK,1459784387968,"english, vietnamese",3,full,band,neither P nor Q,neither full nor empty,stage,no one,sold out,0.2412109386721023,0.512,3,15819,8,5,
A2U51SPL4KNIIX:3YJ6NA41JCOGTXDCDT130BDE9SKJPK,1459784401319,"english, vietnamese",4,fast,car,Q and not-Q,slow and not slow,stage,extremely slow,extremely fast,0.7970165761761396,0.511,2,13348,8,5,
A2U51SPL4KNIIX:3YJ6NA41JCOGTXDCDT130BDE9SKJPK,1459784409186,"english, vietnamese",5,tall,US male,neither P nor not-P,neither tall nor not tall,individual,extremely short,extremely tall,0.5790744491596125,0.515,2,7864,8,5,
A2U51SPL4KNIIX:3YJ6NA41JCOGTXDCDT130BDE9SKJPK,1459784417785,"english, vietnamese",6,hot,bath,Q,cold,stage,extremely cold,extremely hot,0.404779614257176,0.195,6,8592,8,5,
A2WC2NO555XU3J:3TE3O85731G1ZEVJJ0Z06PRC8ZMR2X,1459784306450,English,1,long,movie,P and not-P,long and not long,individual,extremely short,extremely long,0.3544340132368142,0.617,1,14440,7,2,
A2WC2NO555XU3J:3TE3O85731G1ZEVJJ0Z06PRC8ZMR2X,1459784324442,English,2,full,band,neither P nor not-P,neither full nor not full,stage,no one,sold out,0.6761281360827113,0.619,1,17988,7,2,
A2WC2NO555XU3J:3TE3O85731G1ZEVJJ0Z06PRC8ZMR2X,1459784335339,English,3,expensive,laptop,not-Q,not cheap,individual,almost nothing,an enormous amount,0.24174450234338907,0.813,5,10895,7,2,
A2WC2NO555XU3J:3TE3O85731G1ZEVJJ0Z06PRC8ZMR2X,1459784349784,English,4,fast,car,neither Q nor not-Q,neither slow nor not slow,stage,extremely slow,extremely fast,0.6849604071406065,0.522,1,14443,7,2,
A2WC2NO555XU3J:3TE3O85731G1ZEVJJ0Z06PRC8ZMR2X,1459784359330,English,5,tall,US male,not-P ,not tall,individual,extremely short,extremely tall,0.571232873331744,0.35,7,9544,7,2,
A2WC2NO555XU3J:3TE3O85731G1ZEVJJ0Z06PRC8ZMR2X,1459784367327,English,6,hot,bath,Q and not-Q,cold and not cold,stage,extremely cold,extremely hot,0.274236723759375,0.545,1,7994,7,2,
A2K1ESUAWL5M9:36PW28KO4041VDLIA98FD0BR5YMAE8,1459780501018,English,1,long,movie,not-P ,not long,individual,extremely short,extremely long,0.5571439632073096,0.6,6,9152,9,0,No
A2K1ESUAWL5M9:36PW28KO4041VDLIA98FD0BR5YMAE8,1459780521107,English,2,full,band,P,full,stage,no one,sold out,0.41137208539216275,1.0,7,20087,9,0,No
A2K1ESUAWL5M9:36PW28KO4041VDLIA98FD0BR5YMAE8,1459780533617,English,3,expensive,laptop,P and not-P,expensive and not expensive,individual,almost nothing,an enormous amount,0.2902895149338096,0.258,1,12506,9,0,No
A2K1ESUAWL5M9:36PW28KO4041VDLIA98FD0BR5YMAE8,1459780542545,English,4,hot,bath,neither Q nor not-Q,neither cold nor not cold,stage,extremely cold,extremely hot,0.2086456095023006,0.501,5,8927,9,0,No
A2K1ESUAWL5M9:36PW28KO4041VDLIA98FD0BR5YMAE8,1459780553289,English,5,tall,US male,neither P nor Q,neither tall nor short,individual,extremely short,extremely tall,0.9376703136798366,0.495,6,10743,9,0,No
A2K1ESUAWL5M9:36PW28KO4041VDLIA98FD0BR5YMAE8,1459780564507,English,6,fast,car,neither P nor not-P,neither fast nor not fast,stage,extremely slow,extremely fast,0.4799981788400942,0.473,2,11217,9,0,No
ALF9AAZGQP4K5:3XC1O3LBOTUKGFUJXVM0L0R32K9TL0,1459782720391,english,1,fast,car,not-P ,not fast,stage,extremely slow,extremely fast,0.4846614059060812,0.402,4,11311,8,2,all good.
ALF9AAZGQP4K5:3XC1O3LBOTUKGFUJXVM0L0R32K9TL0,1459782737216,english,2,full,band,not-Q,not empty,stage,no one,sold out,0.32574417092837393,0.336,3,16820,8,2,all good.
ALF9AAZGQP4K5:3XC1O3LBOTUKGFUJXVM0L0R32K9TL0,1459782750044,english,3,hot,bath,neither P nor not-P,neither hot nor not hot,stage,extremely cold,extremely hot,0.796439315425232,0.506,3,12825,8,2,all good.
ALF9AAZGQP4K5:3XC1O3LBOTUKGFUJXVM0L0R32K9TL0,1459782766477,english,4,expensive,laptop,P and not-P,expensive and not expensive,individual,almost nothing,an enormous amount,0.3018933169078082,0.529,2,16430,8,2,all good.
ALF9AAZGQP4K5:3XC1O3LBOTUKGFUJXVM0L0R32K9TL0,1459782777007,english,5,tall,US male,Q and not-Q,short and not short,individual,extremely short,extremely tall,0.6477892741095275,0.445,2,10526,8,2,all good.
ALF9AAZGQP4K5:3XC1O3LBOTUKGFUJXVM0L0R32K9TL0,1459782788649,english,6,long,movie,neither Q nor not-Q,neither short nor not short,individual,extremely short,extremely long,0.8999733829405159,0.501,4,11638,8,2,all good.
A3D3NEQ158WUB0:3GDTJDAPVVJLODKGU9CKUHA5OCCM84,1459781348724,English,1,long,movie,neither Q nor not-Q,neither short nor not short,individual,extremely short,extremely long,0.2948719083843059,0.512,3,19043,4,7,No
A3D3NEQ158WUB0:3GDTJDAPVVJLODKGU9CKUHA5OCCM84,1459781359111,English,2,fast,car,P and not-P,fast and not fast,stage,extremely slow,extremely fast,0.5373598024875983,0.529,2,10387,4,7,No
A3D3NEQ158WUB0:3GDTJDAPVVJLODKGU9CKUHA5OCCM84,1459781375429,English,3,full,band,neither P nor Q,neither full nor empty,stage,no one,sold out,0.1080352747769302,0.663,6,16318,4,7,No
A3D3NEQ158WUB0:3GDTJDAPVVJLODKGU9CKUHA5OCCM84,1459781380933,English,4,tall,US male,Q and not-Q,short and not short,individual,extremely short,extremely tall,0.3235807891683231,0.543,1,5504,4,7,No
A3D3NEQ158WUB0:3GDTJDAPVVJLODKGU9CKUHA5OCCM84,1459781391862,English,5,hot,bath,not-Q,not cold,stage,extremely cold,extremely hot,0.5374510882264532,0.842,7,10927,4,7,No
A3D3NEQ158WUB0:3GDTJDAPVVJLODKGU9CKUHA5OCCM84,1459781398917,English,6,expensive,laptop,P,expensive,individual,almost nothing,an enormous amount,0.8551110714012142,0.903,7,7055,4,7,No
A2JRONMDBUJT3K:3LOZAJ85YELLWAHVSZ5SV7D09G72X4,1459783567197,English,1,fast,car,Q,slow,stage,extremely slow,extremely fast,0.0006750940308881681,0.301,6,5434,6,3,Nope :)
A2JRONMDBUJT3K:3LOZAJ85YELLWAHVSZ5SV7D09G72X4,1459783572830,English,2,long,movie,P and not-P,long and not long,individual,extremely short,extremely long,0.7602649043882719,0.377,1,5633,6,3,Nope :)
A2JRONMDBUJT3K:3LOZAJ85YELLWAHVSZ5SV7D09G72X4,1459783578546,English,3,tall,US male,neither P nor not-P,neither tall nor not tall,individual,extremely short,extremely tall,0.6566700402313554,0.206,1,5716,6,3,Nope :)
A2JRONMDBUJT3K:3LOZAJ85YELLWAHVSZ5SV7D09G72X4,1459783584681,English,4,hot,bath,neither P nor Q,neither hot nor cold,stage,extremely cold,extremely hot,0.13877043034991843,0.454,7,6135,6,3,Nope :)
A2JRONMDBUJT3K:3LOZAJ85YELLWAHVSZ5SV7D09G72X4,1459783589449,English,5,expensive,laptop,neither Q nor not-Q,neither cheap nor not cheap,individual,almost nothing,an enormous amount,0.17462796792457191,0.464,1,4768,6,3,Nope :)
A2JRONMDBUJT3K:3LOZAJ85YELLWAHVSZ5SV7D09G72X4,1459783593232,English,6,full,band,Q and not-Q,empty and not empty,stage,no one,sold out,0.7671598324849522,0.513,2,3781,6,3,Nope :)
A36KDWI1CGJFFA:3NAPMVF0ZXNRHVB4AM1U180C7NQ277,1459782201257,English,1,tall,US male,neither P nor not-P,neither tall nor not tall,individual,extremely short,extremely tall,0.382459320763447,0.505,1,27497,5,5,
A36KDWI1CGJFFA:3NAPMVF0ZXNRHVB4AM1U180C7NQ277,1459782219479,English,2,expensive,laptop,neither P nor Q,neither expensive nor cheap,individual,almost nothing,an enormous amount,0.6456788788045379,0.476,6,18219,5,5,
A36KDWI1CGJFFA:3NAPMVF0ZXNRHVB4AM1U180C7NQ277,1459782231446,English,3,long,movie,not-Q,not short,individual,extremely short,extremely long,0.43412502267366737,0.507,2,11964,5,5,
A36KDWI1CGJFFA:3NAPMVF0ZXNRHVB4AM1U180C7NQ277,1459782242380,English,4,fast,car,P and not-P,fast and not fast,stage,extremely slow,extremely fast,0.763341792024668,0.504,1,10932,5,5,
A36KDWI1CGJFFA:3NAPMVF0ZXNRHVB4AM1U180C7NQ277,1459782258141,English,5,full,band,Q,empty,stage,no one,sold out,0.959168591268622,0.021,6,15760,5,5,
A36KDWI1CGJFFA:3NAPMVF0ZXNRHVB4AM1U180C7NQ277,1459782270333,English,6,hot,bath,not-P ,not hot,stage,extremely cold,extremely hot,0.13915844447941295,0.618,6,12190,5,5,
A1640H4RXH8NZE:3URFVVM166QJLHQCC13JYBO307MUZ9,1459780953039,English,1,full,band,neither P nor not-P,neither full nor not full,stage,no one,sold out,0.08328231954266019,0.552,2,16403,6,2,
A1640H4RXH8NZE:3URFVVM166QJLHQCC13JYBO307MUZ9,1459780961565,English,2,hot,bath,neither P nor Q,neither hot nor cold,stage,extremely cold,extremely hot,0.6904767009266717,0.493,6,8520,6,2,
A1640H4RXH8NZE:3URFVVM166QJLHQCC13JYBO307MUZ9,1459780969268,English,3,expensive,laptop,not-P ,not expensive,individual,almost nothing,an enormous amount,0.3509356040941116,0.311,6,7699,6,2,
A1640H4RXH8NZE:3URFVVM166QJLHQCC13JYBO307MUZ9,1459780988074,English,4,fast,car,Q,slow,stage,extremely slow,extremely fast,0.026552939083053895,0.247,7,18802,6,2,
A1640H4RXH8NZE:3URFVVM166QJLHQCC13JYBO307MUZ9,1459780995535,English,5,long,movie,P,long,individual,extremely short,extremely long,0.3812326050742396,0.794,7,7459,6,2,
A1640H4RXH8NZE:3URFVVM166QJLHQCC13JYBO307MUZ9,1459781005344,English,6,tall,US male,P and not-P,tall and not tall,individual,extremely short,extremely tall,0.13432865448358133,0.57,2,9804,6,2,
A5TI9UQEPLNWI:3FDJT1UU75G7B71BBZS13K8AXHJK5Y,1459784391934,Spanish,1,fast,car,P and not-P,fast and not fast,stage,extremely slow,extremely fast,0.9070775091434395,0.487,2,16382,7,2,
A5TI9UQEPLNWI:3FDJT1UU75G7B71BBZS13K8AXHJK5Y,1459784401193,Spanish,2,tall,US male,P,tall,individual,extremely short,extremely tall,0.40184206009808765,0.74,7,9258,7,2,
A5TI9UQEPLNWI:3FDJT1UU75G7B71BBZS13K8AXHJK5Y,1459784418337,Spanish,3,expensive,laptop,Q and not-Q,cheap and not cheap,individual,almost nothing,an enormous amount,0.1316383532605223,0.38,1,17144,7,2,
A5TI9UQEPLNWI:3FDJT1UU75G7B71BBZS13K8AXHJK5Y,1459784435218,Spanish,4,long,movie,not-P ,not long,individual,extremely short,extremely long,0.2748965240947452,0.365,6,16880,7,2,
A5TI9UQEPLNWI:3FDJT1UU75G7B71BBZS13K8AXHJK5Y,1459784452973,Spanish,5,full,band,neither Q nor not-Q,neither empty nor not empty,stage,no one,sold out,0.6982980251032602,0.389,1,17754,7,2,
A5TI9UQEPLNWI:3FDJT1UU75G7B71BBZS13K8AXHJK5Y,1459784475705,Spanish,6,hot,bath,not-Q,not cold,stage,extremely cold,extremely hot,0.6070589300348657,0.371,6,22730,7,2,
ASV53ZC7ILJ7B:39DD6S19JQJ2WLTQM1OEUT20EKOZEV,1459796791927,English,1,tall,US male,Q,short,individual,extremely short,extremely tall,0.3503971872172973,0.29,5,12362,1,1,No.
ASV53ZC7ILJ7B:39DD6S19JQJ2WLTQM1OEUT20EKOZEV,1459796808399,English,2,full,band,not-P ,not full,stage,no one,sold out,0.6667524262066153,0.569,5,16471,1,1,No.
ASV53ZC7ILJ7B:39DD6S19JQJ2WLTQM1OEUT20EKOZEV,1459796824445,English,3,fast,car,Q and not-Q,slow and not slow,stage,extremely slow,extremely fast,0.93621050631133,0.534,1,16045,1,1,No.
ASV53ZC7ILJ7B:39DD6S19JQJ2WLTQM1OEUT20EKOZEV,1459796835967,English,4,expensive,laptop,P,expensive,individual,almost nothing,an enormous amount,0.5544463086346965,0.949,6,11521,1,1,No.
ASV53ZC7ILJ7B:39DD6S19JQJ2WLTQM1OEUT20EKOZEV,1459796849299,English,5,hot,bath,neither P nor not-P,neither hot nor not hot,stage,extremely cold,extremely hot,0.8261458797122667,0.502,1,13331,1,1,No.
ASV53ZC7ILJ7B:39DD6S19JQJ2WLTQM1OEUT20EKOZEV,1459796857615,English,6,long,movie,not-Q,not short,individual,extremely short,extremely long,0.0026306252639756167,0.897,7,8314,1,1,No.
ATOV0H5KQHI29:3R5F3LQFV3SO8C6FGFRAZ5WEIMRZOW,1459792176799,English,1,tall,US male,P,tall,individual,extremely short,extremely tall,0.1744021125439832,0.543,7,15556,8,0,INteresting survey.  Thanks for letting me participate.  Good luck with your data collection. 
ATOV0H5KQHI29:3R5F3LQFV3SO8C6FGFRAZ5WEIMRZOW,1459792189725,English,2,fast,car,neither Q nor not-Q,neither slow nor not slow,stage,extremely slow,extremely fast,0.6867449587748,0.52,3,12924,8,0,INteresting survey.  Thanks for letting me participate.  Good luck with your data collection. 
ATOV0H5KQHI29:3R5F3LQFV3SO8C6FGFRAZ5WEIMRZOW,1459792203451,English,3,expensive,laptop,not-P ,not expensive,individual,almost nothing,an enormous amount,0.41957891028907435,0.267,7,13725,8,0,INteresting survey.  Thanks for letting me participate.  Good luck with your data collection. 
ATOV0H5KQHI29:3R5F3LQFV3SO8C6FGFRAZ5WEIMRZOW,1459792220373,English,4,full,band,Q,empty,stage,no one,sold out,0.49063176518556517,0.0,7,16920,8,0,INteresting survey.  Thanks for letting me participate.  Good luck with your data collection. 
ATOV0H5KQHI29:3R5F3LQFV3SO8C6FGFRAZ5WEIMRZOW,1459792233919,English,5,hot,bath,not-Q,not cold,stage,extremely cold,extremely hot,0.07224203286788633,0.664,7,13540,8,0,INteresting survey.  Thanks for letting me participate.  Good luck with your data collection. 
ATOV0H5KQHI29:3R5F3LQFV3SO8C6FGFRAZ5WEIMRZOW,1459792247168,English,6,long,movie,neither P nor Q,neither long nor short,individual,extremely short,extremely long,0.8909780916015584,0.487,7,13246,8,0,INteresting survey.  Thanks for letting me participate.  Good luck with your data collection. 
A10DEO061A6L3O:3XLBSAQ9Z5KHN6EGZTA8OJAJSWPZ7C,1459783163314,English,1,tall,US male,Q and not-Q,short and not short,individual,extremely short,extremely tall,0.7375952141535219,0.496,2,16186,4,1,
A10DEO061A6L3O:3XLBSAQ9Z5KHN6EGZTA8OJAJSWPZ7C,1459783172741,English,2,long,movie,neither P nor not-P,neither long nor not long,individual,extremely short,extremely long,0.6460634503821413,0.486,3,9410,4,1,
A10DEO061A6L3O:3XLBSAQ9Z5KHN6EGZTA8OJAJSWPZ7C,1459783181292,English,3,hot,bath,neither Q nor not-Q,neither cold nor not cold,stage,extremely cold,extremely hot,0.07976545567934401,0.509,1,8537,4,1,
A10DEO061A6L3O:3XLBSAQ9Z5KHN6EGZTA8OJAJSWPZ7C,1459783197176,English,4,fast,car,not-Q,not slow,stage,extremely slow,extremely fast,0.28599414164801096,0.748,5,15872,4,1,
A10DEO061A6L3O:3XLBSAQ9Z5KHN6EGZTA8OJAJSWPZ7C,1459783209477,English,5,expensive,laptop,not-P ,not expensive,individual,almost nothing,an enormous amount,0.4947984809127953,0.315,5,12287,4,1,
A10DEO061A6L3O:3XLBSAQ9Z5KHN6EGZTA8OJAJSWPZ7C,1459783234800,English,6,full,band,Q,empty,stage,no one,sold out,0.4796894533385663,0.0,7,25312,4,1,
A19I1KU0HG8JG3:3A4NIXBJ777G3K4ZOYLOZMWB8DTMLA,1459789409195,English,1,long,movie,not-Q,not short,individual,extremely short,extremely long,0.700949494691774,0.787,7,14583,10,0,
A19I1KU0HG8JG3:3A4NIXBJ777G3K4ZOYLOZMWB8DTMLA,1459789426231,English,2,fast,car,P,fast,stage,extremely slow,extremely fast,0.16525934407209664,0.767,5,17032,10,0,
A19I1KU0HG8JG3:3A4NIXBJ777G3K4ZOYLOZMWB8DTMLA,1459789442250,English,3,expensive,laptop,neither P nor Q,neither expensive nor cheap,individual,almost nothing,an enormous amount,0.9979794848976158,0.487,6,16017,10,0,
A19I1KU0HG8JG3:3A4NIXBJ777G3K4ZOYLOZMWB8DTMLA,1459789452006,English,4,hot,bath,neither Q nor not-Q,neither cold nor not cold,stage,extremely cold,extremely hot,0.9977930093389502,0.498,2,9754,10,0,
A19I1KU0HG8JG3:3A4NIXBJ777G3K4ZOYLOZMWB8DTMLA,1459789467181,English,5,full,band,not-P ,not full,stage,no one,sold out,0.3030544792933034,0.246,5,15172,10,0,
A19I1KU0HG8JG3:3A4NIXBJ777G3K4ZOYLOZMWB8DTMLA,1459789476304,English,6,tall,US male,neither P nor not-P,neither tall nor not tall,individual,extremely short,extremely tall,0.7573310715705734,0.521,2,9121,10,0,
A1U8HCXVACOGJ8:34BBWHLWHBJAIVQ77XUYG46APAYIW2,1459783676373,English,1,fast,car,not-Q,not slow,stage,extremely slow,extremely fast,0.03268221074642186,0.649,5,12525,5,1,
A1U8HCXVACOGJ8:34BBWHLWHBJAIVQ77XUYG46APAYIW2,1459783695494,English,2,hot,bath,neither P nor Q,neither hot nor cold,stage,extremely cold,extremely hot,0.906186779403252,0.513,6,19116,5,1,
A1U8HCXVACOGJ8:34BBWHLWHBJAIVQ77XUYG46APAYIW2,1459783709049,English,3,full,band,P,full,stage,no one,sold out,0.6010940611444346,1.0,7,13549,5,1,
A1U8HCXVACOGJ8:34BBWHLWHBJAIVQ77XUYG46APAYIW2,1459783720535,English,4,tall,US male,neither P nor not-P,neither tall nor not tall,individual,extremely short,extremely tall,0.4510119636677693,0.511,4,11482,5,1,
A1U8HCXVACOGJ8:34BBWHLWHBJAIVQ77XUYG46APAYIW2,1459783730910,English,5,expensive,laptop,Q and not-Q,cheap and not cheap,individual,almost nothing,an enormous amount,0.43091190346925845,0.414,5,10369,5,1,
A1U8HCXVACOGJ8:34BBWHLWHBJAIVQ77XUYG46APAYIW2,1459783742327,English,6,long,movie,not-P ,not long,individual,extremely short,extremely long,0.5213318805179183,0.504,5,11412,5,1,
ASARROL2Q6XRM:3HRMW88U17Y36OFDZ5Z5124N5E1M0I,1459782619055,English,1,tall,US male,P and not-P,tall and not tall,individual,extremely short,extremely tall,0.22163223677352029,0.527,2,8465,5,1,
ASARROL2Q6XRM:3HRMW88U17Y36OFDZ5Z5124N5E1M0I,1459782627976,English,2,full,band,neither Q nor not-Q,neither empty nor not empty,stage,no one,sold out,0.9999644841858775,0.462,1,8918,5,1,
ASARROL2Q6XRM:3HRMW88U17Y36OFDZ5Z5124N5E1M0I,1459782637369,English,3,long,movie,neither P nor Q,neither long nor short,individual,extremely short,extremely long,0.783979886465097,0.493,1,9391,5,1,
ASARROL2Q6XRM:3HRMW88U17Y36OFDZ5Z5124N5E1M0I,1459782643877,English,4,hot,bath,neither P nor not-P,neither hot nor not hot,stage,extremely cold,extremely hot,0.19616876194561428,0.485,1,6506,5,1,
ASARROL2Q6XRM:3HRMW88U17Y36OFDZ5Z5124N5E1M0I,1459782649917,English,5,expensive,laptop,not-Q,not cheap,individual,almost nothing,an enormous amount,0.8207803325914385,1.0,7,6038,5,1,
ASARROL2Q6XRM:3HRMW88U17Y36OFDZ5Z5124N5E1M0I,1459782659872,English,6,fast,car,not-P ,not fast,stage,extremely slow,extremely fast,0.7220772466359723,0.182,4,9953,5,1,
A3KNSTTC20KYLQ:3XLBSAQ9Z5KHN6EGZTA8OJAJSXO7ZL,1459794796992,English,1,hot,bath,neither P nor Q,neither hot nor cold,stage,extremely cold,extremely hot,0.1602748993318528,0.487,7,9113,5,1,
A3KNSTTC20KYLQ:3XLBSAQ9Z5KHN6EGZTA8OJAJSXO7ZL,1459794808935,English,2,fast,car,not-Q,not slow,stage,extremely slow,extremely fast,0.574213040759787,0.661,5,11942,5,1,
A3KNSTTC20KYLQ:3XLBSAQ9Z5KHN6EGZTA8OJAJSXO7ZL,1459794828150,English,3,tall,US male,neither Q nor not-Q,neither short nor not short,individual,extremely short,extremely tall,0.998469018843025,0.513,2,19214,5,1,
A3KNSTTC20KYLQ:3XLBSAQ9Z5KHN6EGZTA8OJAJSXO7ZL,1459794840942,English,4,long,movie,P and not-P,long and not long,individual,extremely short,extremely long,0.03672417439520359,0.496,2,12790,5,1,
A3KNSTTC20KYLQ:3XLBSAQ9Z5KHN6EGZTA8OJAJSXO7ZL,1459794857837,English,5,full,band,Q and not-Q,empty and not empty,stage,no one,sold out,0.16330794128589332,0.23,2,16894,5,1,
A3KNSTTC20KYLQ:3XLBSAQ9Z5KHN6EGZTA8OJAJSXO7ZL,1459794868653,English,6,expensive,laptop,P,expensive,individual,almost nothing,an enormous amount,0.1203647623769939,0.738,6,10815,5,1,
AZWNKDPOHO240:3WLEIWSYHPPOAKHGNVN6SLP6LQN2HA,1459781841220,English ,1,expensive,laptop,Q,cheap,individual,almost nothing,an enormous amount,0.5953635818485472,0.322,7,11962,10,0,
AZWNKDPOHO240:3WLEIWSYHPPOAKHGNVN6SLP6LQN2HA,1459781850235,English ,2,long,movie,not-Q,not short,individual,extremely short,extremely long,0.3874967068061528,0.579,3,9013,10,0,
AZWNKDPOHO240:3WLEIWSYHPPOAKHGNVN6SLP6LQN2HA,1459781858838,English ,3,hot,bath,P and not-P,hot and not hot,stage,extremely cold,extremely hot,0.8962062921579927,0.521,2,8600,10,0,
AZWNKDPOHO240:3WLEIWSYHPPOAKHGNVN6SLP6LQN2HA,1459781868347,English ,4,tall,US male,not-P ,not tall,individual,extremely short,extremely tall,0.3261032730729778,0.416,4,9508,10,0,
AZWNKDPOHO240:3WLEIWSYHPPOAKHGNVN6SLP6LQN2HA,1459781879714,English ,5,full,band,Q and not-Q,empty and not empty,stage,no one,sold out,0.19084113869854313,0.492,1,11364,10,0,
AZWNKDPOHO240:3WLEIWSYHPPOAKHGNVN6SLP6LQN2HA,1459781886798,English ,6,fast,car,P,fast,stage,extremely slow,extremely fast,0.3837665937103898,0.668,7,7084,10,0,
A2WYCY1FMQOD5F:33NF62TLXKAFI6GW01WV4URFFIEKJK,1459784679552,English,1,long,movie,neither P nor not-P,neither long nor not long,individual,extremely short,extremely long,0.053255601337472314,0.743,6,4543,8,3,No comments
A2WYCY1FMQOD5F:33NF62TLXKAFI6GW01WV4URFFIEKJK,1459784685271,English,2,full,band,P,full,stage,no one,sold out,0.36658955752212474,0.567,4,5717,8,3,No comments
A2WYCY1FMQOD5F:33NF62TLXKAFI6GW01WV4URFFIEKJK,1459784689647,English,3,expensive,laptop,P and not-P,expensive and not expensive,individual,almost nothing,an enormous amount,0.6906984454799809,0.38,3,4375,8,3,No comments
A2WYCY1FMQOD5F:33NF62TLXKAFI6GW01WV4URFFIEKJK,1459784694183,English,4,hot,bath,neither P nor Q,neither hot nor cold,stage,extremely cold,extremely hot,0.469320450528496,0.556,3,4534,8,3,No comments
A2WYCY1FMQOD5F:33NF62TLXKAFI6GW01WV4URFFIEKJK,1459784697638,English,5,fast,car,Q,slow,stage,extremely slow,extremely fast,0.2846061208650339,0.542,5,3454,8,3,No comments
A2WYCY1FMQOD5F:33NF62TLXKAFI6GW01WV4URFFIEKJK,1459784701150,English,6,tall,US male,not-Q,not short,individual,extremely short,extremely tall,0.09873791945683696,0.44,5,3510,8,3,No comments
AU6ZURVHX4KPT:320DUZ38G8UAGKKDAABG62ZM81YGJE,1459787348134,english,1,hot,bath,not-Q,not cold,stage,extremely cold,extremely hot,0.681123260445911,0.499,3,13511,7,4,"Very interesting, thank you!"
AU6ZURVHX4KPT:320DUZ38G8UAGKKDAABG62ZM81YGJE,1459787358525,english,2,expensive,laptop,P and not-P,expensive and not expensive,individual,almost nothing,an enormous amount,0.2163557975520647,0.467,4,10387,7,4,"Very interesting, thank you!"
AU6ZURVHX4KPT:320DUZ38G8UAGKKDAABG62ZM81YGJE,1459787366580,english,3,full,band,P,full,stage,no one,sold out,0.556285481254523,0.911,7,8053,7,4,"Very interesting, thank you!"
AU6ZURVHX4KPT:320DUZ38G8UAGKKDAABG62ZM81YGJE,1459787376788,english,4,fast,car,neither P nor not-P,neither fast nor not fast,stage,extremely slow,extremely fast,0.3742876073969237,0.498,1,10204,7,4,"Very interesting, thank you!"
AU6ZURVHX4KPT:320DUZ38G8UAGKKDAABG62ZM81YGJE,1459787385708,english,5,long,movie,Q and not-Q,short and not short,individual,extremely short,extremely long,0.721658799388466,0.492,1,8918,7,4,"Very interesting, thank you!"
AU6ZURVHX4KPT:320DUZ38G8UAGKKDAABG62ZM81YGJE,1459787394596,english,6,tall,US male,neither P nor Q,neither tall nor short,individual,extremely short,extremely tall,0.3552482543428652,0.505,5,8886,7,4,"Very interesting, thank you!"
A3SCEZTWZYV3BC:32N49TQG3HQIXO745ZXPD4ZD5UEVAQ,1459793271979,English,1,full,band,P,full,stage,no one,sold out,0.5105232082142976,0.772,6,9584,8,1,no
A3SCEZTWZYV3BC:32N49TQG3HQIXO745ZXPD4ZD5UEVAQ,1459793283478,English,2,expensive,laptop,Q,cheap,individual,almost nothing,an enormous amount,0.9672126926517262,0.364,6,11497,8,1,no
A3SCEZTWZYV3BC:32N49TQG3HQIXO745ZXPD4ZD5UEVAQ,1459793290023,English,3,tall,US male,not-P ,not tall,individual,extremely short,extremely tall,0.5124345009009106,0.387,5,6541,8,1,no
A3SCEZTWZYV3BC:32N49TQG3HQIXO745ZXPD4ZD5UEVAQ,1459793298780,English,4,fast,car,not-Q,not slow,stage,extremely slow,extremely fast,0.39922308466023937,0.618,3,8754,8,1,no
A3SCEZTWZYV3BC:32N49TQG3HQIXO745ZXPD4ZD5UEVAQ,1459793305356,English,5,long,movie,Q and not-Q,short and not short,individual,extremely short,extremely long,0.026687243724629717,0.491,1,6572,8,1,no
A3SCEZTWZYV3BC:32N49TQG3HQIXO745ZXPD4ZD5UEVAQ,1459793308908,English,6,hot,bath,P and not-P,hot and not hot,stage,extremely cold,extremely hot,0.8211661195229809,0.506,1,3549,8,1,no
A1BYG5EFRULJ1W:3QY5DC2MXSSDG0ZCBP9CVJ8LO2TFU7,1459780586214,English,1,full,band,Q,empty,stage,no one,sold out,0.31780306472347364,0.0,7,34669,8,4,Thanks for the opportunity.
A1BYG5EFRULJ1W:3QY5DC2MXSSDG0ZCBP9CVJ8LO2TFU7,1459780612086,English,2,tall,US male,not-Q,not short,individual,extremely short,extremely tall,0.11423099120630265,0.722,2,25868,8,4,Thanks for the opportunity.
A1BYG5EFRULJ1W:3QY5DC2MXSSDG0ZCBP9CVJ8LO2TFU7,1459780627481,English,3,hot,bath,neither P nor not-P,neither hot nor not hot,stage,extremely cold,extremely hot,0.4965494748226612,0.498,1,15391,8,4,Thanks for the opportunity.
A1BYG5EFRULJ1W:3QY5DC2MXSSDG0ZCBP9CVJ8LO2TFU7,1459780657458,English,4,expensive,laptop,neither P nor Q,neither expensive nor cheap,individual,almost nothing,an enormous amount,0.38060140050371893,0.5,5,29969,8,4,Thanks for the opportunity.
A1BYG5EFRULJ1W:3QY5DC2MXSSDG0ZCBP9CVJ8LO2TFU7,1459780673086,English,5,long,movie,Q and not-Q,short and not short,individual,extremely short,extremely long,0.27772182012992674,0.511,1,15623,8,4,Thanks for the opportunity.
A1BYG5EFRULJ1W:3QY5DC2MXSSDG0ZCBP9CVJ8LO2TFU7,1459780690014,English,6,fast,car,P,fast,stage,extremely slow,extremely fast,0.4432253621120238,0.851,6,16924,8,4,Thanks for the opportunity.
AYCLMGBGZN95I:3SKRO2GZ72Z8NP0SACQP0UVTL1CK1E,1459782139027,English,1,tall,US male,P and not-P,tall and not tall,individual,extremely short,extremely tall,0.9495440083296778,0.471,2,8825,6,5,
AYCLMGBGZN95I:3SKRO2GZ72Z8NP0SACQP0UVTL1CK1E,1459782146870,English,2,long,movie,not-P ,not long,individual,extremely short,extremely long,0.15269161016374455,0.17,3,7840,6,5,
AYCLMGBGZN95I:3SKRO2GZ72Z8NP0SACQP0UVTL1CK1E,1459782156286,English,3,fast,car,Q,slow,stage,extremely slow,extremely fast,0.666295413364673,0.346,4,9414,6,5,
AYCLMGBGZN95I:3SKRO2GZ72Z8NP0SACQP0UVTL1CK1E,1459782166830,English,4,full,band,Q and not-Q,empty and not empty,stage,no one,sold out,0.5696100007323477,0.262,1,10543,6,5,
AYCLMGBGZN95I:3SKRO2GZ72Z8NP0SACQP0UVTL1CK1E,1459782174671,English,5,expensive,laptop,neither Q nor not-Q,neither cheap nor not cheap,individual,almost nothing,an enormous amount,0.9147201655781161,0.469,5,7839,6,5,
AYCLMGBGZN95I:3SKRO2GZ72Z8NP0SACQP0UVTL1CK1E,1459782180304,English,6,hot,bath,neither P nor Q,neither hot nor cold,stage,extremely cold,extremely hot,0.30522121938421853,0.518,5,5631,6,5,
AK0Y6OITL7VGX:3IUZPWIU1PF1OQGV70FATKLNHELKWD,1459782094879,English,1,long,movie,neither P nor not-P,neither long nor not long,individual,extremely short,extremely long,0.9544193671438392,0.511,2,19148,8,0,
AK0Y6OITL7VGX:3IUZPWIU1PF1OQGV70FATKLNHELKWD,1459782105522,English,2,expensive,laptop,neither Q nor not-Q,neither cheap nor not cheap,individual,almost nothing,an enormous amount,0.17343094097861944,0.508,2,10642,8,0,
AK0Y6OITL7VGX:3IUZPWIU1PF1OQGV70FATKLNHELKWD,1459782113243,English,3,tall,US male,not-P ,not tall,individual,extremely short,extremely tall,0.6506700703946302,0.208,7,7720,8,0,
AK0Y6OITL7VGX:3IUZPWIU1PF1OQGV70FATKLNHELKWD,1459782126904,English,4,hot,bath,not-Q,not cold,stage,extremely cold,extremely hot,0.654508091531337,0.702,7,13660,8,0,
AK0Y6OITL7VGX:3IUZPWIU1PF1OQGV70FATKLNHELKWD,1459782138519,English,5,full,band,P,full,stage,no one,sold out,0.17495542568829503,1.0,7,11614,8,0,
AK0Y6OITL7VGX:3IUZPWIU1PF1OQGV70FATKLNHELKWD,1459782149617,English,6,fast,car,P and not-P,fast and not fast,stage,extremely slow,extremely fast,0.8503748611999071,0.507,1,11097,8,0,
A16C6XX9Q3JIBW:3KXIR214I5OUY8TL8O3NYWG2GME243,1459787149817,english,1,expensive,laptop,Q and not-Q,cheap and not cheap,individual,almost nothing,an enormous amount,0.24922965706573308,0.335,4,46012,2,0,
A16C6XX9Q3JIBW:3KXIR214I5OUY8TL8O3NYWG2GME243,1459787203700,english,2,full,band,P and not-P,full and not full,stage,no one,sold out,0.7676638320058067,0.53,1,53881,2,0,
A16C6XX9Q3JIBW:3KXIR214I5OUY8TL8O3NYWG2GME243,1459787216959,english,3,tall,US male,not-P ,not tall,individual,extremely short,extremely tall,0.6059380824047136,0.258,6,13257,2,0,
A16C6XX9Q3JIBW:3KXIR214I5OUY8TL8O3NYWG2GME243,1459787232023,english,4,hot,bath,Q,cold,stage,extremely cold,extremely hot,0.934008938920853,0.154,7,15062,2,0,
A16C6XX9Q3JIBW:3KXIR214I5OUY8TL8O3NYWG2GME243,1459787253774,english,5,long,movie,neither Q nor not-Q,neither short nor not short,individual,extremely short,extremely long,0.3080424650503093,0.464,1,21749,2,0,
A16C6XX9Q3JIBW:3KXIR214I5OUY8TL8O3NYWG2GME243,1459787280260,english,6,fast,car,P,fast,stage,extremely slow,extremely fast,0.1531785527340146,0.791,6,26483,2,0,
A3BPTARPGHYU1N:3DI28L7YXBM51P8IEQFM2ZIO14JE1R,1459785068802,English,1,full,band,Q and not-Q,empty and not empty,stage,no one,sold out,0.08507735189050436,0.456,3,17565,7,2,Thanks for allowing me to participate.
A3BPTARPGHYU1N:3DI28L7YXBM51P8IEQFM2ZIO14JE1R,1459785078186,English,2,expensive,laptop,not-Q,not cheap,individual,almost nothing,an enormous amount,0.15664220182225108,0.776,5,9381,7,2,Thanks for allowing me to participate.
A3BPTARPGHYU1N:3DI28L7YXBM51P8IEQFM2ZIO14JE1R,1459785089061,English,3,fast,car,neither Q nor not-Q,neither slow nor not slow,stage,extremely slow,extremely fast,0.3872906225733459,0.508,2,10871,7,2,Thanks for allowing me to participate.
A3BPTARPGHYU1N:3DI28L7YXBM51P8IEQFM2ZIO14JE1R,1459785096757,English,4,long,movie,not-P ,not long,individual,extremely short,extremely long,0.5494871083647013,0.286,5,7693,7,2,Thanks for allowing me to participate.
A3BPTARPGHYU1N:3DI28L7YXBM51P8IEQFM2ZIO14JE1R,1459785102394,English,5,tall,US male,P,tall,individual,extremely short,extremely tall,0.8078695139847696,0.701,5,5634,7,2,Thanks for allowing me to participate.
A3BPTARPGHYU1N:3DI28L7YXBM51P8IEQFM2ZIO14JE1R,1459785108567,English,6,hot,bath,neither P nor Q,neither hot nor cold,stage,extremely cold,extremely hot,0.9650776872877032,0.49,3,6171,7,2,Thanks for allowing me to participate.
A1R5W4RQZTROD8:3K772S5NP9JG50TWGFI7UMYVITCHEQ,1459782213773,English,1,tall,US male,not-Q,not short,individual,extremely short,extremely tall,0.8563952514893358,0.528,3,12809,8,0,None
A1R5W4RQZTROD8:3K772S5NP9JG50TWGFI7UMYVITCHEQ,1459782220572,English,2,long,movie,Q,short,individual,extremely short,extremely long,0.1075324354286935,0.165,6,6798,8,0,None
A1R5W4RQZTROD8:3K772S5NP9JG50TWGFI7UMYVITCHEQ,1459782226014,English,3,hot,bath,neither P nor not-P,neither hot nor not hot,stage,extremely cold,extremely hot,0.1862412239838085,0.489,4,5440,8,0,None
A1R5W4RQZTROD8:3K772S5NP9JG50TWGFI7UMYVITCHEQ,1459782236304,English,4,full,band,not-P ,not full,stage,no one,sold out,0.744827049725735,0.491,3,10289,8,0,None
A1R5W4RQZTROD8:3K772S5NP9JG50TWGFI7UMYVITCHEQ,1459782247154,English,5,expensive,laptop,neither Q nor not-Q,neither cheap nor not cheap,individual,almost nothing,an enormous amount,0.4278505430008359,0.512,2,10848,8,0,None
A1R5W4RQZTROD8:3K772S5NP9JG50TWGFI7UMYVITCHEQ,1459782257548,English,6,fast,car,neither P nor Q,neither fast nor slow,stage,extremely slow,extremely fast,0.8915243957429639,0.425,2,10392,8,0,None
AWWD4KD3H0Y52:37Q970SNZFG6B8D0FLZRRGM32WB1S0,1459788789419,Englsih,1,long,movie,not-P ,not long,individual,extremely short,extremely long,0.6082169380182896,0.24,6,13722,7,3,
AWWD4KD3H0Y52:37Q970SNZFG6B8D0FLZRRGM32WB1S0,1459788799154,Englsih,2,expensive,laptop,neither Q nor not-Q,neither cheap nor not cheap,individual,almost nothing,an enormous amount,0.8705668485837508,0.489,2,9735,7,3,
AWWD4KD3H0Y52:37Q970SNZFG6B8D0FLZRRGM32WB1S0,1459788814250,Englsih,3,full,band,not-Q,not empty,stage,no one,sold out,0.7953948077263036,0.604,3,15096,7,3,
AWWD4KD3H0Y52:37Q970SNZFG6B8D0FLZRRGM32WB1S0,1459788821722,Englsih,4,hot,bath,Q and not-Q,cold and not cold,stage,extremely cold,extremely hot,0.7572737781706458,0.472,1,7472,7,3,
AWWD4KD3H0Y52:37Q970SNZFG6B8D0FLZRRGM32WB1S0,1459788828394,Englsih,5,tall,US male,P,tall,individual,extremely short,extremely tall,0.20621451286678938,0.716,7,6671,7,3,
AWWD4KD3H0Y52:37Q970SNZFG6B8D0FLZRRGM32WB1S0,1459788835410,Englsih,6,fast,car,neither P nor Q,neither fast nor slow,stage,extremely slow,extremely fast,0.5687194207507396,0.491,2,7016,7,3,
A3H0XGON3XVK12:3TDXMTX3CC2COGB1GFHUIA7X19VI6T,1459791817358,English,1,fast,car,neither Q nor not-Q,neither slow nor not slow,stage,extremely slow,extremely fast,0.3659454401094824,0.527,1,15802,10,0,
A3H0XGON3XVK12:3TDXMTX3CC2COGB1GFHUIA7X19VI6T,1459791830420,English,2,expensive,laptop,neither P nor not-P,neither expensive nor not expensive,individual,almost nothing,an enormous amount,0.49151697603861044,0.538,1,13061,10,0,
A3H0XGON3XVK12:3TDXMTX3CC2COGB1GFHUIA7X19VI6T,1459791840656,English,3,tall,US male,P,tall,individual,extremely short,extremely tall,0.2880185421989574,0.739,7,10235,10,0,
A3H0XGON3XVK12:3TDXMTX3CC2COGB1GFHUIA7X19VI6T,1459791862312,English,4,full,band,Q,empty,stage,no one,sold out,0.9992167035005035,0.0,3,21653,10,0,
A3H0XGON3XVK12:3TDXMTX3CC2COGB1GFHUIA7X19VI6T,1459791873300,English,5,hot,bath,neither P nor Q,neither hot nor cold,stage,extremely cold,extremely hot,0.09480999748735308,0.515,3,10985,10,0,
A3H0XGON3XVK12:3TDXMTX3CC2COGB1GFHUIA7X19VI6T,1459791887960,English,6,long,movie,not-P ,not long,individual,extremely short,extremely long,0.9328385081093511,0.357,5,14658,10,0,
A1SXRLI2J6IYY9:338JKRMM277DFNCK0AGLY384XEHAHR,1459784802298,English,1,tall,US male,Q,short,individual,extremely short,extremely tall,0.7131775587331504,0.244,7,16088,8,0,no
A1SXRLI2J6IYY9:338JKRMM277DFNCK0AGLY384XEHAHR,1459784823310,English,2,hot,bath,P and not-P,hot and not hot,stage,extremely cold,extremely hot,0.8581493010278791,0.481,3,21000,8,0,no
A1SXRLI2J6IYY9:338JKRMM277DFNCK0AGLY384XEHAHR,1459784857225,English,3,full,band,not-Q,not empty,stage,no one,sold out,0.9734880598261952,0.294,3,33906,8,0,no
A1SXRLI2J6IYY9:338JKRMM277DFNCK0AGLY384XEHAHR,1459784873336,English,4,long,movie,P,long,individual,extremely short,extremely long,0.6434104267973453,0.666,7,16103,8,0,no
A1SXRLI2J6IYY9:338JKRMM277DFNCK0AGLY384XEHAHR,1459784883227,English,5,fast,car,Q and not-Q,slow and not slow,stage,extremely slow,extremely fast,0.15799566451460123,0.482,3,9886,8,0,no
A1SXRLI2J6IYY9:338JKRMM277DFNCK0AGLY384XEHAHR,1459784897061,English,6,expensive,laptop,neither P nor not-P,neither expensive nor not expensive,individual,almost nothing,an enormous amount,0.12158148433081806,0.471,3,13825,8,0,no
A1GMJZUQ8Q7053:3H7Z272LX8FMON1CGEDGGQQ6DHMPLP,1459782562807,English,1,tall,US male,Q,short,individual,extremely short,extremely tall,0.17866847964886934,0.314,6,9436,10,0,
A1GMJZUQ8Q7053:3H7Z272LX8FMON1CGEDGGQQ6DHMPLP,1459782568730,English,2,fast,car,neither P nor Q,neither fast nor slow,stage,extremely slow,extremely fast,0.7359239230330417,0.487,3,5922,10,0,
A1GMJZUQ8Q7053:3H7Z272LX8FMON1CGEDGGQQ6DHMPLP,1459782581965,English,3,hot,bath,neither P nor not-P,neither hot nor not hot,stage,extremely cold,extremely hot,0.2240625765620048,0.693,3,13233,10,0,
A1GMJZUQ8Q7053:3H7Z272LX8FMON1CGEDGGQQ6DHMPLP,1459782598104,English,4,full,band,not-Q,not empty,stage,no one,sold out,0.6711917519344726,0.371,4,16139,10,0,
A1GMJZUQ8Q7053:3H7Z272LX8FMON1CGEDGGQQ6DHMPLP,1459782604744,English,5,expensive,laptop,neither Q nor not-Q,neither cheap nor not cheap,individual,almost nothing,an enormous amount,0.3351521859951818,0.471,3,6638,10,0,
A1GMJZUQ8Q7053:3H7Z272LX8FMON1CGEDGGQQ6DHMPLP,1459782608875,English,6,long,movie,P,long,individual,extremely short,extremely long,0.16534028001965217,0.726,6,4131,10,0,
AP9QPMZF13N0I:3IAS3U3I0GOEJ7EUN3DA6AM8QDH2BT,1459780363313,English,1,fast,car,neither P nor not-P,neither fast nor not fast,stage,extremely slow,extremely fast,0.7717333344786441,0.487,1,13021,6,4,No additional comments at this time.
AP9QPMZF13N0I:3IAS3U3I0GOEJ7EUN3DA6AM8QDH2BT,1459780372728,English,2,expensive,laptop,P and not-P,expensive and not expensive,individual,almost nothing,an enormous amount,0.6618209759561677,0.498,1,9414,6,4,No additional comments at this time.
AP9QPMZF13N0I:3IAS3U3I0GOEJ7EUN3DA6AM8QDH2BT,1459780387936,English,3,full,band,P,full,stage,no one,sold out,0.0831321833590355,1.0,7,15208,6,4,No additional comments at this time.
AP9QPMZF13N0I:3IAS3U3I0GOEJ7EUN3DA6AM8QDH2BT,1459780397696,English,4,tall,US male,not-P ,not tall,individual,extremely short,extremely tall,0.19715297266802945,0.223,6,9760,6,4,No additional comments at this time.
AP9QPMZF13N0I:3IAS3U3I0GOEJ7EUN3DA6AM8QDH2BT,1459780403751,English,5,long,movie,neither Q nor not-Q,neither short nor not short,individual,extremely short,extremely long,0.40318276908237793,0.516,1,6055,6,4,No additional comments at this time.
AP9QPMZF13N0I:3IAS3U3I0GOEJ7EUN3DA6AM8QDH2BT,1459780411560,English,6,hot,bath,Q,cold,stage,extremely cold,extremely hot,0.20358741987929374,0.228,6,7808,6,4,No additional comments at this time.
A12J4IRF5Z06BT:3ZWFC4W1UVFL087V7VE7Q8L1H3QFR4,1459783818266,English,1,full,band,neither P nor Q,neither full nor empty,stage,no one,sold out,0.9249515051409942,0.505,6,15452,8,2,
A12J4IRF5Z06BT:3ZWFC4W1UVFL087V7VE7Q8L1H3QFR4,1459783830706,English,2,long,movie,not-P ,not long,individual,extremely short,extremely long,0.9771626346689957,0.216,7,12439,8,2,
A12J4IRF5Z06BT:3ZWFC4W1UVFL087V7VE7Q8L1H3QFR4,1459783839641,English,3,fast,car,Q,slow,stage,extremely slow,extremely fast,0.5116963917768098,0.188,7,8933,8,2,
A12J4IRF5Z06BT:3ZWFC4W1UVFL087V7VE7Q8L1H3QFR4,1459783847433,English,4,tall,US male,neither Q nor not-Q,neither short nor not short,individual,extremely short,extremely tall,0.24034320725481173,0.507,2,7791,8,2,
A12J4IRF5Z06BT:3ZWFC4W1UVFL087V7VE7Q8L1H3QFR4,1459783856713,English,5,hot,bath,neither P nor not-P,neither hot nor not hot,stage,extremely cold,extremely hot,0.786990119993386,0.509,1,9279,8,2,
A12J4IRF5Z06BT:3ZWFC4W1UVFL087V7VE7Q8L1H3QFR4,1459783865434,English,6,expensive,laptop,not-Q,not cheap,individual,almost nothing,an enormous amount,0.5906028975093673,0.845,7,8719,8,2,
A9317WH3Y1SZ8:320DUZ38G8UAGKKDAABG62ZM81XJGG,1459784733159,english,1,fast,car,P,fast,stage,extremely slow,extremely fast,0.5754384466358589,0.683,7,8351,10,0,
A9317WH3Y1SZ8:320DUZ38G8UAGKKDAABG62ZM81XJGG,1459784740393,english,2,full,band,P and not-P,full and not full,stage,no one,sold out,0.9168649500552766,0.547,2,7231,10,0,
A9317WH3Y1SZ8:320DUZ38G8UAGKKDAABG62ZM81XJGG,1459784745936,english,3,hot,bath,neither P nor Q,neither hot nor cold,stage,extremely cold,extremely hot,0.7797702034488545,0.423,3,5541,10,0,
A9317WH3Y1SZ8:320DUZ38G8UAGKKDAABG62ZM81XJGG,1459784751000,english,4,expensive,laptop,Q,cheap,individual,almost nothing,an enormous amount,0.7604639072272363,0.148,7,5062,10,0,
A9317WH3Y1SZ8:320DUZ38G8UAGKKDAABG62ZM81XJGG,1459784760817,english,5,tall,US male,not-P ,not tall,individual,extremely short,extremely tall,0.9201895812833094,0.309,6,9815,10,0,
A9317WH3Y1SZ8:320DUZ38G8UAGKKDAABG62ZM81XJGG,1459784771584,english,6,long,movie,neither P nor not-P,neither long nor not long,individual,extremely short,extremely long,0.824150335844462,0.365,2,10764,10,0,
A85ATJSDTIARY:3RJSC4XJ1125YHU776IJK0T1JJB50B,1459780674267,english,1,fast,car,P,fast,stage,extremely slow,extremely fast,0.2181214248837391,0.794,6,10105,8,2,
A85ATJSDTIARY:3RJSC4XJ1125YHU776IJK0T1JJB50B,1459780693836,english,2,full,band,not-P ,not full,stage,no one,sold out,0.41283137149054516,0.282,7,19567,8,2,
A85ATJSDTIARY:3RJSC4XJ1125YHU776IJK0T1JJB50B,1459780701985,english,3,long,movie,neither P nor not-P,neither long nor not long,individual,extremely short,extremely long,0.29354361420820285,0.519,4,8148,8,2,
A85ATJSDTIARY:3RJSC4XJ1125YHU776IJK0T1JJB50B,1459780712765,english,4,expensive,laptop,Q,cheap,individual,almost nothing,an enormous amount,0.3467942155786472,0.262,7,10779,8,2,
A85ATJSDTIARY:3RJSC4XJ1125YHU776IJK0T1JJB50B,1459780725066,english,5,hot,bath,neither Q nor not-Q,neither cold nor not cold,stage,extremely cold,extremely hot,0.9971697100957075,0.561,4,12298,8,2,
A85ATJSDTIARY:3RJSC4XJ1125YHU776IJK0T1JJB50B,1459780733744,english,6,tall,US male,P and not-P,tall and not tall,individual,extremely short,extremely tall,0.8902073503526928,0.504,3,8677,8,2,
A1X5IZPCRLL0Z7:3N4BPTXIO90OWMRQC009BW0QWZQUK6,1459787922003,English,1,expensive,laptop,Q and not-Q,cheap and not cheap,individual,almost nothing,an enormous amount,0.17642104684235793,0.44,7,20772,3,2,
A1X5IZPCRLL0Z7:3N4BPTXIO90OWMRQC009BW0QWZQUK6,1459787928843,English,2,tall,US male,P and not-P,tall and not tall,individual,extremely short,extremely tall,0.11600474770597158,0.484,7,6837,3,2,
A1X5IZPCRLL0Z7:3N4BPTXIO90OWMRQC009BW0QWZQUK6,1459787941708,English,3,full,band,not-P ,not full,stage,no one,sold out,0.8996063256960098,0.199,6,12862,3,2,
A1X5IZPCRLL0Z7:3N4BPTXIO90OWMRQC009BW0QWZQUK6,1459787954035,English,4,hot,bath,not-Q,not cold,stage,extremely cold,extremely hot,0.15007411292925754,0.71,5,12327,3,2,
A1X5IZPCRLL0Z7:3N4BPTXIO90OWMRQC009BW0QWZQUK6,1459787960985,English,5,fast,car,neither P nor Q,neither fast nor slow,stage,extremely slow,extremely fast,0.07116382467957783,0.489,6,6950,3,2,
A1X5IZPCRLL0Z7:3N4BPTXIO90OWMRQC009BW0QWZQUK6,1459787965642,English,6,long,movie,Q,short,individual,extremely short,extremely long,0.9687947137564525,0.256,6,4657,3,2,
A192KH5OJUUAZ4:3YJ6NA41JCOGTXDCDT130BDE9TFPJN,1459794358614,English,1,fast,car,not-Q,not slow,stage,extremely slow,extremely fast,0.11736785345895662,0.484,1,12520,7,8,Terms were quantitatively non descriptive.
A192KH5OJUUAZ4:3YJ6NA41JCOGTXDCDT130BDE9TFPJN,1459794369302,English,2,hot,bath,P and not-P,hot and not hot,stage,extremely cold,extremely hot,0.2535191962876675,0.594,1,10685,7,8,Terms were quantitatively non descriptive.
A192KH5OJUUAZ4:3YJ6NA41JCOGTXDCDT130BDE9TFPJN,1459794376308,English,3,tall,US male,not-P ,not tall,individual,extremely short,extremely tall,0.18917514374883604,0.277,7,7005,7,8,Terms were quantitatively non descriptive.
A192KH5OJUUAZ4:3YJ6NA41JCOGTXDCDT130BDE9TFPJN,1459794388836,English,4,full,band,Q,empty,stage,no one,sold out,0.027692006011532655,0.212,7,12527,7,8,Terms were quantitatively non descriptive.
A192KH5OJUUAZ4:3YJ6NA41JCOGTXDCDT130BDE9TFPJN,1459794397772,English,5,long,movie,neither P nor Q,neither long nor short,individual,extremely short,extremely long,0.7282073560552729,0.482,5,8932,7,8,Terms were quantitatively non descriptive.
A192KH5OJUUAZ4:3YJ6NA41JCOGTXDCDT130BDE9TFPJN,1459794406725,English,6,expensive,laptop,neither Q nor not-Q,neither cheap nor not cheap,individual,almost nothing,an enormous amount,0.22316267095512266,0.484,1,8950,7,8,Terms were quantitatively non descriptive.
ACVXBOS4CZGVQ:36DSNE9QZ66Y8X1BYTOOBB8OZNROJB,1459785563452,English ,1,fast,car,neither Q nor not-Q,neither slow nor not slow,stage,extremely slow,extremely fast,0.404733871524278,0.808,6,12702,10,0,
ACVXBOS4CZGVQ:36DSNE9QZ66Y8X1BYTOOBB8OZNROJB,1459785570964,English ,2,long,movie,P,long,individual,extremely short,extremely long,0.9165982418151049,0.845,6,7503,10,0,
ACVXBOS4CZGVQ:36DSNE9QZ66Y8X1BYTOOBB8OZNROJB,1459785579646,English ,3,hot,bath,neither P nor Q,neither hot nor cold,stage,extremely cold,extremely hot,0.5642802397497423,0.771,5,8675,10,0,
ACVXBOS4CZGVQ:36DSNE9QZ66Y8X1BYTOOBB8OZNROJB,1459785585600,English ,4,expensive,laptop,not-Q,not cheap,individual,almost nothing,an enormous amount,0.38566030557305264,0.829,7,5949,10,0,
ACVXBOS4CZGVQ:36DSNE9QZ66Y8X1BYTOOBB8OZNROJB,1459785590443,English ,5,tall,US male,P and not-P,tall and not tall,individual,extremely short,extremely tall,0.8723875976389668,0.681,2,4834,10,0,
ACVXBOS4CZGVQ:36DSNE9QZ66Y8X1BYTOOBB8OZNROJB,1459785600084,English ,6,full,band,not-P ,not full,stage,no one,sold out,0.09115049889480131,0.944,7,9634,10,0,
AK3H5QRAROFGP:37Z929RLGAG7KSP9H4J1XM5YUEHSTD,1459786351200,English,1,long,movie,P,long,individual,extremely short,extremely long,0.7554706181221318,0.849,7,13937,8,0,
AK3H5QRAROFGP:37Z929RLGAG7KSP9H4J1XM5YUEHSTD,1459786364785,English,2,expensive,laptop,neither P nor Q,neither expensive nor cheap,individual,almost nothing,an enormous amount,0.5715823789168244,0.496,6,13584,8,0,
AK3H5QRAROFGP:37Z929RLGAG7KSP9H4J1XM5YUEHSTD,1459786375084,English,3,hot,bath,Q,cold,stage,extremely cold,extremely hot,0.9496540562687983,0.248,7,10297,8,0,
AK3H5QRAROFGP:37Z929RLGAG7KSP9H4J1XM5YUEHSTD,1459786392114,English,4,full,band,not-P ,not full,stage,no one,sold out,0.9781760224634284,0.614,6,17029,8,0,
AK3H5QRAROFGP:37Z929RLGAG7KSP9H4J1XM5YUEHSTD,1459786406886,English,5,tall,US male,neither Q nor not-Q,neither short nor not short,individual,extremely short,extremely tall,0.6483695834387382,0.498,1,14770,8,0,
AK3H5QRAROFGP:37Z929RLGAG7KSP9H4J1XM5YUEHSTD,1459786414483,English,6,fast,car,not-Q,not slow,stage,extremely slow,extremely fast,0.5336415085920527,0.504,1,7596,8,0,
A3LKJENHEI94WC:35GCEFQ6I6WZMNDTXH7IB2Y3NV1Z37,1459795130477,English,1,hot,bath,P and not-P,hot and not hot,stage,extremely cold,extremely hot,0.24808266714956195,0.423,7,13493,9,0,Thank you for the opportunity! I appreciate it very much.
A3LKJENHEI94WC:35GCEFQ6I6WZMNDTXH7IB2Y3NV1Z37,1459795148699,English,2,long,movie,neither P nor not-P,neither long nor not long,individual,extremely short,extremely long,0.5313217048504808,0.549,7,18219,9,0,Thank you for the opportunity! I appreciate it very much.
A3LKJENHEI94WC:35GCEFQ6I6WZMNDTXH7IB2Y3NV1Z37,1459795161187,English,3,fast,car,not-P ,not fast,stage,extremely slow,extremely fast,0.04329035749622112,0.064,6,12487,9,0,Thank you for the opportunity! I appreciate it very much.
A3LKJENHEI94WC:35GCEFQ6I6WZMNDTXH7IB2Y3NV1Z37,1459795170619,English,4,full,band,P,full,stage,no one,sold out,0.9939948009022261,0.975,6,9430,9,0,Thank you for the opportunity! I appreciate it very much.
A3LKJENHEI94WC:35GCEFQ6I6WZMNDTXH7IB2Y3NV1Z37,1459795177787,English,5,expensive,laptop,Q,cheap,individual,almost nothing,an enormous amount,0.0999214162170865,0.104,6,7165,9,0,Thank you for the opportunity! I appreciate it very much.
A3LKJENHEI94WC:35GCEFQ6I6WZMNDTXH7IB2Y3NV1Z37,1459795186011,English,6,tall,US male,neither Q nor not-Q,neither short nor not short,individual,extremely short,extremely tall,0.36649545794257454,0.532,7,8222,9,0,Thank you for the opportunity! I appreciate it very much.
A1GPZ5REMDQZ0L:3X31TUMD7YUJ7VIAVC2QFU88A1L1L2,1459785138335,English,1,expensive,laptop,not-P ,not expensive,individual,almost nothing,an enormous amount,0.15579593326367425,0.232,7,8762,5,0,
A1GPZ5REMDQZ0L:3X31TUMD7YUJ7VIAVC2QFU88A1L1L2,1459785147309,English,2,hot,bath,P and not-P,hot and not hot,stage,extremely cold,extremely hot,0.07659859100280908,0.507,1,8972,5,0,
A1GPZ5REMDQZ0L:3X31TUMD7YUJ7VIAVC2QFU88A1L1L2,1459785155238,English,3,tall,US male,neither Q nor not-Q,neither short nor not short,individual,extremely short,extremely tall,0.930426027363211,0.5,1,7929,5,0,
A1GPZ5REMDQZ0L:3X31TUMD7YUJ7VIAVC2QFU88A1L1L2,1459785162479,English,4,fast,car,Q,slow,stage,extremely slow,extremely fast,0.3072796742787687,0.205,2,7240,5,0,
A1GPZ5REMDQZ0L:3X31TUMD7YUJ7VIAVC2QFU88A1L1L2,1459785168843,English,5,full,band,P,full,stage,no one,sold out,0.2788613080191371,1.0,7,6360,5,0,
A1GPZ5REMDQZ0L:3X31TUMD7YUJ7VIAVC2QFU88A1L1L2,1459785173290,English,6,long,movie,neither P nor Q,neither long nor short,individual,extremely short,extremely long,0.7107617970233442,0.481,4,4446,5,0,
A1FA1L9ASOU9R7:35BLDD71I75JYWFCHRDOUXQMEFCZVM,1459787668692,English,1,fast,car,P,fast,stage,extremely slow,extremely fast,0.3394768538419157,0.7,3,21776,8,1,Thanks!
A1FA1L9ASOU9R7:35BLDD71I75JYWFCHRDOUXQMEFCZVM,1459787684763,English,2,tall,US male,neither P nor Q,neither tall nor short,individual,extremely short,extremely tall,0.3937755199149251,0.475,6,16068,8,1,Thanks!
A1FA1L9ASOU9R7:35BLDD71I75JYWFCHRDOUXQMEFCZVM,1459787702427,English,3,long,movie,neither Q nor not-Q,neither short nor not short,individual,extremely short,extremely long,0.5204240267630666,0.478,1,17662,8,1,Thanks!
A1FA1L9ASOU9R7:35BLDD71I75JYWFCHRDOUXQMEFCZVM,1459787734259,English,4,full,band,Q,empty,stage,no one,sold out,0.24788710684515536,0.0,7,31830,8,1,Thanks!
A1FA1L9ASOU9R7:35BLDD71I75JYWFCHRDOUXQMEFCZVM,1459787751205,English,5,hot,bath,Q and not-Q,cold and not cold,stage,extremely cold,extremely hot,0.7770568705163896,0.409,1,16944,8,1,Thanks!
A1FA1L9ASOU9R7:35BLDD71I75JYWFCHRDOUXQMEFCZVM,1459787768274,English,6,expensive,laptop,not-P ,not expensive,individual,almost nothing,an enormous amount,0.8488068506121635,0.241,7,17067,8,1,Thanks!
A1TN5VBAYB5GD9:33TIN5LC05ILWZS4I469O8SNHTFY94,1459785941703,english,1,full,band,neither P nor not-P,neither full nor not full,stage,no one,sold out,0.28817242907071106,0.505,2,16317,7,1,no
A1TN5VBAYB5GD9:33TIN5LC05ILWZS4I469O8SNHTFY94,1459785952170,english,2,fast,car,neither P nor Q,neither fast nor slow,stage,extremely slow,extremely fast,0.8601342684938331,0.378,3,10467,7,1,no
A1TN5VBAYB5GD9:33TIN5LC05ILWZS4I469O8SNHTFY94,1459785963826,english,3,hot,bath,P and not-P,hot and not hot,stage,extremely cold,extremely hot,0.25684037563751017,0.473,3,11656,7,1,no
A1TN5VBAYB5GD9:33TIN5LC05ILWZS4I469O8SNHTFY94,1459785975002,english,4,expensive,laptop,neither Q nor not-Q,neither cheap nor not cheap,individual,almost nothing,an enormous amount,0.6966602548708603,0.582,4,11176,7,1,no
A1TN5VBAYB5GD9:33TIN5LC05ILWZS4I469O8SNHTFY94,1459785984243,english,5,long,movie,P,long,individual,extremely short,extremely long,0.19923666381317373,0.812,7,9241,7,1,no
A1TN5VBAYB5GD9:33TIN5LC05ILWZS4I469O8SNHTFY94,1459785991647,english,6,tall,US male,not-Q,not short,individual,extremely short,extremely tall,0.8158945044904171,0.594,6,7404,7,1,no
ATXD32K0HEP2C:3U0SRXB7CEDXO0KC5JXKYDUAJUFNRM,1459786030519,english,1,hot,bath,P,hot,stage,extremely cold,extremely hot,0.9400274109781552,0.814,6,12311,9,2,
ATXD32K0HEP2C:3U0SRXB7CEDXO0KC5JXKYDUAJUFNRM,1459786041460,english,2,fast,car,P and not-P,fast and not fast,stage,extremely slow,extremely fast,0.960168216241551,0.387,1,10924,9,2,
ATXD32K0HEP2C:3U0SRXB7CEDXO0KC5JXKYDUAJUFNRM,1459786051013,english,3,expensive,laptop,neither P nor not-P,neither expensive nor not expensive,individual,almost nothing,an enormous amount,0.4373571101670415,0.382,4,9525,9,2,
ATXD32K0HEP2C:3U0SRXB7CEDXO0KC5JXKYDUAJUFNRM,1459786064331,english,4,tall,US male,neither Q nor not-Q,neither short nor not short,individual,extremely short,extremely tall,0.20516096288782304,0.191,1,13301,9,2,
ATXD32K0HEP2C:3U0SRXB7CEDXO0KC5JXKYDUAJUFNRM,1459786078528,english,5,full,band,Q,empty,stage,no one,sold out,0.4807548056531705,0.077,7,14188,9,2,
ATXD32K0HEP2C:3U0SRXB7CEDXO0KC5JXKYDUAJUFNRM,1459786086630,english,6,long,movie,Q and not-Q,short and not short,individual,extremely short,extremely long,0.36352271982801665,0.248,1,8059,9,2,
A143I60XRE97LR:3IFS6Q0HJJRHBE9YNSKXJF3PJX4ISP,1459786037175,English,1,long,movie,neither Q nor not-Q,neither short nor not short,individual,extremely short,extremely long,0.21043216607716375,0.504,5,14123,9,1,It was interesting.
A143I60XRE97LR:3IFS6Q0HJJRHBE9YNSKXJF3PJX4ISP,1459786047353,English,2,expensive,laptop,not-Q,not cheap,individual,almost nothing,an enormous amount,0.58178368826609,0.732,7,10176,9,1,It was interesting.
A143I60XRE97LR:3IFS6Q0HJJRHBE9YNSKXJF3PJX4ISP,1459786054575,English,3,tall,US male,P and not-P,tall and not tall,individual,extremely short,extremely tall,0.5836704010217456,0.492,3,7220,9,1,It was interesting.
A143I60XRE97LR:3IFS6Q0HJJRHBE9YNSKXJF3PJX4ISP,1459786065294,English,4,hot,bath,Q,cold,stage,extremely cold,extremely hot,0.8113000425162926,0.233,7,10717,9,1,It was interesting.
A143I60XRE97LR:3IFS6Q0HJJRHBE9YNSKXJF3PJX4ISP,1459786074267,English,5,fast,car,neither P nor not-P,neither fast nor not fast,stage,extremely slow,extremely fast,0.6524686874198119,0.489,5,8970,9,1,It was interesting.
A143I60XRE97LR:3IFS6Q0HJJRHBE9YNSKXJF3PJX4ISP,1459786091554,English,6,full,band,Q and not-Q,empty and not empty,stage,no one,sold out,0.8755214077433812,0.5,5,17286,9,1,It was interesting.
A39ROW50DWRRKT:3H7XDTSHKDZWM4KCH9UVVSTUAX4WGM,1459781040461,English,1,hot,bath,Q and not-Q,cold and not cold,stage,extremely cold,extremely hot,0.8740861057414167,0.186,2,12756,10,0,
A39ROW50DWRRKT:3H7XDTSHKDZWM4KCH9UVVSTUAX4WGM,1459781048331,English,2,expensive,laptop,P,expensive,individual,almost nothing,an enormous amount,0.7271491288095904,0.744,7,7865,10,0,
A39ROW50DWRRKT:3H7XDTSHKDZWM4KCH9UVVSTUAX4WGM,1459781058014,English,3,fast,car,neither P nor not-P,neither fast nor not fast,stage,extremely slow,extremely fast,0.5724997899989894,0.25,1,9679,10,0,
A39ROW50DWRRKT:3H7XDTSHKDZWM4KCH9UVVSTUAX4WGM,1459781063907,English,4,full,band,Q,empty,stage,no one,sold out,0.8757276457139134,0.0,7,5892,10,0,
A39ROW50DWRRKT:3H7XDTSHKDZWM4KCH9UVVSTUAX4WGM,1459781070125,English,5,long,movie,not-Q,not short,individual,extremely short,extremely long,0.9993118781219208,0.73,5,6216,10,0,
A39ROW50DWRRKT:3H7XDTSHKDZWM4KCH9UVVSTUAX4WGM,1459781075913,English,6,tall,US male,P and not-P,tall and not tall,individual,extremely short,extremely tall,0.2971347522376908,0.52,1,5784,10,0,
AURYD2FH3FUOQ:3CFJTT4SXUYVSGP6ZPMMOO7TWJNI7Y,1459782137642,English,1,long,movie,not-P ,not long,individual,extremely short,extremely long,0.2698022735966332,0.393,5,14495,10,0,None
AURYD2FH3FUOQ:3CFJTT4SXUYVSGP6ZPMMOO7TWJNI7Y,1459782154786,English,2,fast,car,P,fast,stage,extremely slow,extremely fast,0.7088169005238987,0.753,7,17134,10,0,None
AURYD2FH3FUOQ:3CFJTT4SXUYVSGP6ZPMMOO7TWJNI7Y,1459782167659,English,3,expensive,laptop,Q and not-Q,cheap and not cheap,individual,almost nothing,an enormous amount,0.5752353303711454,0.498,2,12865,10,0,None
AURYD2FH3FUOQ:3CFJTT4SXUYVSGP6ZPMMOO7TWJNI7Y,1459782186123,English,4,tall,US male,neither Q nor not-Q,neither short nor not short,individual,extremely short,extremely tall,0.14308264733828024,0.518,1,18452,10,0,None
AURYD2FH3FUOQ:3CFJTT4SXUYVSGP6ZPMMOO7TWJNI7Y,1459782216463,English,5,full,band,neither P nor Q,neither full nor empty,stage,no one,sold out,0.4986382240440712,0.269,1,30332,10,0,None
AURYD2FH3FUOQ:3CFJTT4SXUYVSGP6ZPMMOO7TWJNI7Y,1459782230422,English,6,hot,bath,neither P nor not-P,neither hot nor not hot,stage,extremely cold,extremely hot,0.875458873799178,0.414,1,13949,10,0,None
A1KQ4XZM996XWW:3VSOLARPKCHKGWVGTJDJYEWA8S939S,1459793424382,English,1,full,band,neither P nor not-P,neither full nor not full,stage,no one,sold out,0.4716436976379814,0.489,3,13337,5,1,
A1KQ4XZM996XWW:3VSOLARPKCHKGWVGTJDJYEWA8S939S,1459793433586,English,2,fast,car,Q and not-Q,slow and not slow,stage,extremely slow,extremely fast,0.33992027139288106,0.455,1,9200,5,1,
A1KQ4XZM996XWW:3VSOLARPKCHKGWVGTJDJYEWA8S939S,1459793459968,English,3,expensive,laptop,Q,cheap,individual,almost nothing,an enormous amount,0.9724134832929439,0.15,5,26381,5,1,
A1KQ4XZM996XWW:3VSOLARPKCHKGWVGTJDJYEWA8S939S,1459793469666,English,4,tall,US male,not-Q,not short,individual,extremely short,extremely tall,0.6509755163818474,0.714,4,9695,5,1,
A1KQ4XZM996XWW:3VSOLARPKCHKGWVGTJDJYEWA8S939S,1459793476824,English,5,hot,bath,P and not-P,hot and not hot,stage,extremely cold,extremely hot,0.21782351524497034,0.451,2,7157,5,1,
A1KQ4XZM996XWW:3VSOLARPKCHKGWVGTJDJYEWA8S939S,1459793504637,English,6,long,movie,neither Q nor not-Q,neither short nor not short,individual,extremely short,extremely long,0.6318392834491882,0.492,1,27810,5,1,
A2GR3333S2F53G:3NLZY2D53QX7OZ2RGRS5GVGGIE3QLE,1459792968661,english,1,hot,bath,not-Q,not cold,stage,extremely cold,extremely hot,0.8227238447864975,0.657,3,21115,10,0,
A2GR3333S2F53G:3NLZY2D53QX7OZ2RGRS5GVGGIE3QLE,1459792983543,english,2,long,movie,P,long,individual,extremely short,extremely long,0.2672141886537438,0.627,5,14879,10,0,
A2GR3333S2F53G:3NLZY2D53QX7OZ2RGRS5GVGGIE3QLE,1459792998608,english,3,tall,US male,not-P ,not tall,individual,extremely short,extremely tall,0.13444685245502308,0.507,3,15064,10,0,
A2GR3333S2F53G:3NLZY2D53QX7OZ2RGRS5GVGGIE3QLE,1459793018129,english,4,expensive,laptop,neither P nor not-P,neither expensive nor not expensive,individual,almost nothing,an enormous amount,0.8155980562713001,0.574,4,19521,10,0,
A2GR3333S2F53G:3NLZY2D53QX7OZ2RGRS5GVGGIE3QLE,1459793053547,english,5,full,band,P and not-P,full and not full,stage,no one,sold out,0.6066596717801152,0.785,2,35417,10,0,
A2GR3333S2F53G:3NLZY2D53QX7OZ2RGRS5GVGGIE3QLE,1459793068103,english,6,fast,car,Q and not-Q,slow and not slow,stage,extremely slow,extremely fast,0.18600960366256114,0.465,3,14555,10,0,
A3FO0AK3PG8ZDK:3N4BPTXIO90OWMRQC009BW0QWYAKUE,1459782925738,English,1,full,band,Q,empty,stage,no one,sold out,0.8231161739017433,0.046,7,19731,7,1,
A3FO0AK3PG8ZDK:3N4BPTXIO90OWMRQC009BW0QWYAKUE,1459782937121,English,2,fast,car,not-P ,not fast,stage,extremely slow,extremely fast,0.7929833619604016,0.496,5,11375,7,1,
A3FO0AK3PG8ZDK:3N4BPTXIO90OWMRQC009BW0QWYAKUE,1459782947343,English,3,hot,bath,neither Q nor not-Q,neither cold nor not cold,stage,extremely cold,extremely hot,0.8959652588087867,0.51,3,10214,7,1,
A3FO0AK3PG8ZDK:3N4BPTXIO90OWMRQC009BW0QWYAKUE,1459782954252,English,4,long,movie,neither P nor Q,neither long nor short,individual,extremely short,extremely long,0.17203437707173963,0.533,4,6901,7,1,
A3FO0AK3PG8ZDK:3N4BPTXIO90OWMRQC009BW0QWYAKUE,1459782963669,English,5,expensive,laptop,neither P nor not-P,neither expensive nor not expensive,individual,almost nothing,an enormous amount,0.6876886414285774,0.514,4,9410,7,1,
A3FO0AK3PG8ZDK:3N4BPTXIO90OWMRQC009BW0QWYAKUE,1459782973075,English,6,tall,US male,not-Q,not short,individual,extremely short,extremely tall,0.4345040831588982,0.241,5,9398,7,1,
A2QKF81YI2ORRM:3EICBYG6454XZ8488OFXGBE7A93JC4,1459781038470,english,1,full,band,P,full,stage,no one,sold out,0.004624444441223119,1.0,4,16329,8,2,nope im good
A2QKF81YI2ORRM:3EICBYG6454XZ8488OFXGBE7A93JC4,1459781048027,english,2,tall,US male,not-P ,not tall,individual,extremely short,extremely tall,0.5858476591172959,0.335,6,9550,8,2,nope im good
A2QKF81YI2ORRM:3EICBYG6454XZ8488OFXGBE7A93JC4,1459781058865,english,3,fast,car,P and not-P,fast and not fast,stage,extremely slow,extremely fast,0.9322516933075871,0.465,1,10834,8,2,nope im good
A2QKF81YI2ORRM:3EICBYG6454XZ8488OFXGBE7A93JC4,1459781069942,english,4,long,movie,Q,short,individual,extremely short,extremely long,0.7381289954033958,0.326,6,11074,8,2,nope im good
A2QKF81YI2ORRM:3EICBYG6454XZ8488OFXGBE7A93JC4,1459781079722,english,5,expensive,laptop,Q and not-Q,cheap and not cheap,individual,almost nothing,an enormous amount,0.21982360671565582,0.382,1,9775,8,2,nope im good
A2QKF81YI2ORRM:3EICBYG6454XZ8488OFXGBE7A93JC4,1459781094516,english,6,hot,bath,not-Q,not cold,stage,extremely cold,extremely hot,0.6826971773718189,0.634,4,14789,8,2,nope im good
A9754EPKP763V:3DYGAII7PMGXFKHP8JLCXCP0NN9PQE,1459781692372,English,1,hot,bath,neither P nor not-P,neither hot nor not hot,stage,extremely cold,extremely hot,0.7709215089760116,0.504,5,15326,8,3,
A9754EPKP763V:3DYGAII7PMGXFKHP8JLCXCP0NN9PQE,1459781700822,English,2,fast,car,P,fast,stage,extremely slow,extremely fast,0.6343370200809967,0.692,7,8440,8,3,
A9754EPKP763V:3DYGAII7PMGXFKHP8JLCXCP0NN9PQE,1459781713773,English,3,tall,US male,neither Q nor not-Q,neither short nor not short,individual,extremely short,extremely tall,0.2784058418666985,0.493,1,12947,8,3,
A9754EPKP763V:3DYGAII7PMGXFKHP8JLCXCP0NN9PQE,1459781728798,English,4,full,band,neither P nor Q,neither full nor empty,stage,no one,sold out,0.9973875658085936,0.505,6,15018,8,3,
A9754EPKP763V:3DYGAII7PMGXFKHP8JLCXCP0NN9PQE,1459781741108,English,5,long,movie,not-P ,not long,individual,extremely short,extremely long,0.25831975341741165,0.336,7,12296,8,3,
A9754EPKP763V:3DYGAII7PMGXFKHP8JLCXCP0NN9PQE,1459781753982,English,6,expensive,laptop,Q,cheap,individual,almost nothing,an enormous amount,0.45774392246251505,0.134,7,12867,8,3,
A30RAYNDOWQ61S:3B1NLC6UG0462VNB5NG03YLYH03GPD,1459784059198,English,1,long,movie,Q and not-Q,short and not short,individual,extremely short,extremely long,0.1072578171037224,0.307,1,24154,8,3,Thanks!
A30RAYNDOWQ61S:3B1NLC6UG0462VNB5NG03YLYH03GPD,1459784078826,English,2,fast,car,Q,slow,stage,extremely slow,extremely fast,0.8761383986178757,0.25,3,19628,8,3,Thanks!
A30RAYNDOWQ61S:3B1NLC6UG0462VNB5NG03YLYH03GPD,1459784098264,English,3,hot,bath,neither Q nor not-Q,neither cold nor not cold,stage,extremely cold,extremely hot,0.9809702232734254,0.373,1,19438,8,3,Thanks!
A30RAYNDOWQ61S:3B1NLC6UG0462VNB5NG03YLYH03GPD,1459784112351,English,4,tall,US male,not-P ,not tall,individual,extremely short,extremely tall,0.5143229339848083,0.275,7,14087,8,3,Thanks!
A30RAYNDOWQ61S:3B1NLC6UG0462VNB5NG03YLYH03GPD,1459784131692,English,5,full,band,P,full,stage,no one,sold out,0.8110723142880114,1.0,7,19341,8,3,Thanks!
A30RAYNDOWQ61S:3B1NLC6UG0462VNB5NG03YLYH03GPD,1459784148173,English,6,expensive,laptop,neither P nor Q,neither expensive nor cheap,individual,almost nothing,an enormous amount,0.8254689330776903,0.483,6,16481,8,3,Thanks!
A2UF2FRGVW4T89:3XM0HYN6NL78IHRKZSQC3V0M4KMEPS,1459782377825,English,1,fast,car,P and not-P,fast and not fast,stage,extremely slow,extremely fast,0.5185891042543322,0.489,1,17207,6,3,
A2UF2FRGVW4T89:3XM0HYN6NL78IHRKZSQC3V0M4KMEPS,1459782385498,English,2,tall,US male,Q,short,individual,extremely short,extremely tall,0.5118497015025596,0.198,7,7671,6,3,
A2UF2FRGVW4T89:3XM0HYN6NL78IHRKZSQC3V0M4KMEPS,1459782396229,English,3,hot,bath,Q and not-Q,cold and not cold,stage,extremely cold,extremely hot,0.22488118111671196,0.502,1,10731,6,3,
A2UF2FRGVW4T89:3XM0HYN6NL78IHRKZSQC3V0M4KMEPS,1459782406424,English,4,long,movie,neither P nor Q,neither long nor short,individual,extremely short,extremely long,0.20919433328185533,0.506,6,10195,6,3,
A2UF2FRGVW4T89:3XM0HYN6NL78IHRKZSQC3V0M4KMEPS,1459782415646,English,5,full,band,not-P ,not full,stage,no one,sold out,0.053739223900948874,0.21,7,9207,6,3,
A2UF2FRGVW4T89:3XM0HYN6NL78IHRKZSQC3V0M4KMEPS,1459782422262,English,6,expensive,laptop,P,expensive,individual,almost nothing,an enormous amount,0.5919183260900449,0.817,7,6616,6,3,
A373WNHSS0BG52:3Q5C1WP23N9556FP3PMJY5CBOBJ15C,1459784234916,english,1,expensive,laptop,neither P nor Q,neither expensive nor cheap,individual,almost nothing,an enormous amount,0.984508076300572,0.614,7,64049,8,0,
A373WNHSS0BG52:3Q5C1WP23N9556FP3PMJY5CBOBJ15C,1459784276034,english,2,fast,car,neither P nor not-P,neither fast nor not fast,stage,extremely slow,extremely fast,0.5196637957646426,0.289,1,41116,8,0,
A373WNHSS0BG52:3Q5C1WP23N9556FP3PMJY5CBOBJ15C,1459784292748,english,3,full,band,Q,empty,stage,no one,sold out,0.23051254624258477,0.0,7,16713,8,0,
A373WNHSS0BG52:3Q5C1WP23N9556FP3PMJY5CBOBJ15C,1459784314454,english,4,tall,US male,P and not-P,tall and not tall,individual,extremely short,extremely tall,0.8657705670848477,0.705,1,21704,8,0,
A373WNHSS0BG52:3Q5C1WP23N9556FP3PMJY5CBOBJ15C,1459784357359,english,5,hot,bath,neither Q nor not-Q,neither cold nor not cold,stage,extremely cold,extremely hot,0.9118369136406042,0.207,1,42904,8,0,
A373WNHSS0BG52:3Q5C1WP23N9556FP3PMJY5CBOBJ15C,1459784380102,english,6,long,movie,not-Q,not short,individual,extremely short,extremely long,0.20259477339795717,0.955,7,22741,8,0,
A1G1FML6FEYDMR:3LEIZ60CDK7L1P29EQ8S2F1PNN29ZP,1459790488933,English,1,long,movie,Q,short,individual,extremely short,extremely long,0.7739047135673758,0.278,7,9359,8,3,
A1G1FML6FEYDMR:3LEIZ60CDK7L1P29EQ8S2F1PNN29ZP,1459790516626,English,2,full,band,P and not-P,full and not full,stage,no one,sold out,0.5159108044631355,0.753,3,27688,8,3,
A1G1FML6FEYDMR:3LEIZ60CDK7L1P29EQ8S2F1PNN29ZP,1459790526188,English,3,expensive,laptop,neither P nor Q,neither expensive nor cheap,individual,almost nothing,an enormous amount,0.5306814705301313,0.602,5,9560,8,3,
A1G1FML6FEYDMR:3LEIZ60CDK7L1P29EQ8S2F1PNN29ZP,1459790539963,English,4,hot,bath,Q and not-Q,cold and not cold,stage,extremely cold,extremely hot,0.5086358347052515,0.55,4,13772,8,3,
A1G1FML6FEYDMR:3LEIZ60CDK7L1P29EQ8S2F1PNN29ZP,1459790550148,English,5,fast,car,neither Q nor not-Q,neither slow nor not slow,stage,extremely slow,extremely fast,0.15438121460273746,0.496,2,10179,8,3,
A1G1FML6FEYDMR:3LEIZ60CDK7L1P29EQ8S2F1PNN29ZP,1459790560616,English,6,tall,US male,not-Q,not short,individual,extremely short,extremely tall,0.7795755127078254,0.57,7,10465,8,3,
AVPHXIHCQODIP:3ZAZR5XV02QNZN9CQAIJ452XT7HCZJ,1459781506560,English,1,expensive,laptop,neither P nor not-P,neither expensive nor not expensive,individual,almost nothing,an enormous amount,0.13056630205789865,0.513,3,18157,8,3,
AVPHXIHCQODIP:3ZAZR5XV02QNZN9CQAIJ452XT7HCZJ,1459781516771,English,2,long,movie,neither P nor Q,neither long nor short,individual,extremely short,extremely long,0.5675409774099478,0.514,6,10211,8,3,
AVPHXIHCQODIP:3ZAZR5XV02QNZN9CQAIJ452XT7HCZJ,1459781524563,English,3,hot,bath,neither Q nor not-Q,neither cold nor not cold,stage,extremely cold,extremely hot,0.7650076346999954,0.485,3,7792,8,3,
AVPHXIHCQODIP:3ZAZR5XV02QNZN9CQAIJ452XT7HCZJ,1459781570694,English,4,tall,US male,not-P ,not tall,individual,extremely short,extremely tall,0.3620369801899359,0.21,7,46131,8,3,
AVPHXIHCQODIP:3ZAZR5XV02QNZN9CQAIJ452XT7HCZJ,1459781579728,English,5,full,band,P,full,stage,no one,sold out,0.9385476807765372,1.0,7,9034,8,3,
AVPHXIHCQODIP:3ZAZR5XV02QNZN9CQAIJ452XT7HCZJ,1459781591551,English,6,fast,car,Q and not-Q,slow and not slow,stage,extremely slow,extremely fast,0.8708000589707374,0.509,1,11823,8,3,
A3JE938K7DZN83:3L4PIM1GQUOR0ZOQCL6VFTSHNEFYRJ,1459781334452,english,1,expensive,laptop,Q,cheap,individual,almost nothing,an enormous amount,0.5696684973878181,0.289,4,9141,6,6,
A3JE938K7DZN83:3L4PIM1GQUOR0ZOQCL6VFTSHNEFYRJ,1459781343397,english,2,full,band,not-Q,not empty,stage,no one,sold out,0.6523975394493546,0.529,4,8944,6,6,
A3JE938K7DZN83:3L4PIM1GQUOR0ZOQCL6VFTSHNEFYRJ,1459781351834,english,3,tall,US male,P and not-P,tall and not tall,individual,extremely short,extremely tall,0.7984008820477861,0.508,2,8436,6,6,
A3JE938K7DZN83:3L4PIM1GQUOR0ZOQCL6VFTSHNEFYRJ,1459781360334,english,4,fast,car,not-P ,not fast,stage,extremely slow,extremely fast,0.3626122272314978,0.324,3,8499,6,6,
A3JE938K7DZN83:3L4PIM1GQUOR0ZOQCL6VFTSHNEFYRJ,1459781371075,english,5,hot,bath,neither P nor not-P,neither hot nor not hot,stage,extremely cold,extremely hot,0.7326987143668615,0.462,2,10740,6,6,
A3JE938K7DZN83:3L4PIM1GQUOR0ZOQCL6VFTSHNEFYRJ,1459781378285,english,6,long,movie,neither Q nor not-Q,neither short nor not short,individual,extremely short,extremely long,0.49034578096815085,0.392,2,7209,6,6,
A31AG5Q0S5OI5V:3SKRO2GZ72Z8NP0SACQP0UVTL1F1KY,1459786069919,English,1,expensive,laptop,neither P nor not-P,neither expensive nor not expensive,individual,almost nothing,an enormous amount,0.7859161199756861,0.582,1,11258,7,1,"Enjoyable, good luck with your research!"
A31AG5Q0S5OI5V:3SKRO2GZ72Z8NP0SACQP0UVTL1F1KY,1459786079555,English,2,fast,car,Q and not-Q,slow and not slow,stage,extremely slow,extremely fast,0.5162541858866068,0.46,2,9632,7,1,"Enjoyable, good luck with your research!"
A31AG5Q0S5OI5V:3SKRO2GZ72Z8NP0SACQP0UVTL1F1KY,1459786085843,English,3,long,movie,not-Q,not short,individual,extremely short,extremely long,0.4696390685602416,0.624,5,6286,7,1,"Enjoyable, good luck with your research!"
A31AG5Q0S5OI5V:3SKRO2GZ72Z8NP0SACQP0UVTL1F1KY,1459786091291,English,4,tall,US male,neither P nor Q,neither tall nor short,individual,extremely short,extremely tall,0.9653163378751342,0.495,6,5445,7,1,"Enjoyable, good luck with your research!"
A31AG5Q0S5OI5V:3SKRO2GZ72Z8NP0SACQP0UVTL1F1KY,1459786098740,English,5,hot,bath,P and not-P,hot and not hot,stage,extremely cold,extremely hot,0.30938341260332414,0.441,4,7446,7,1,"Enjoyable, good luck with your research!"
A31AG5Q0S5OI5V:3SKRO2GZ72Z8NP0SACQP0UVTL1F1KY,1459786105659,English,6,full,band,not-P ,not full,stage,no one,sold out,0.22061797953623707,0.332,5,6917,7,1,"Enjoyable, good luck with your research!"
A2MCRVU8I9VNHG:35GCEFQ6I6WZMNDTXH7IB2Y3NU83ZG,1459785616888,English,1,hot,bath,not-P ,not hot,stage,extremely cold,extremely hot,0.3696679515560187,0.458,3,15352,9,1,
A2MCRVU8I9VNHG:35GCEFQ6I6WZMNDTXH7IB2Y3NU83ZG,1459785627971,English,2,full,band,neither P nor not-P,neither full nor not full,stage,no one,sold out,0.0913275001868471,0.509,2,11080,9,1,
A2MCRVU8I9VNHG:35GCEFQ6I6WZMNDTXH7IB2Y3NU83ZG,1459785637793,English,3,long,movie,neither Q nor not-Q,neither short nor not short,individual,extremely short,extremely long,0.992723205284986,0.5,1,9819,9,1,
A2MCRVU8I9VNHG:35GCEFQ6I6WZMNDTXH7IB2Y3NU83ZG,1459785645673,English,4,tall,US male,Q,short,individual,extremely short,extremely tall,0.3188764202528126,0.232,7,7877,9,1,
A2MCRVU8I9VNHG:35GCEFQ6I6WZMNDTXH7IB2Y3NU83ZG,1459785653993,English,5,expensive,laptop,P and not-P,expensive and not expensive,individual,almost nothing,an enormous amount,0.12080395369286934,0.498,1,8313,9,1,
A2MCRVU8I9VNHG:35GCEFQ6I6WZMNDTXH7IB2Y3NU83ZG,1459785668448,English,6,fast,car,neither P nor Q,neither fast nor slow,stage,extremely slow,extremely fast,0.5133249594536362,0.514,4,14450,9,1,
debug5B1ZMX:debugAJ5FRP,1459779770894,English,1,fast,car,P and not-P,fast and not fast,stage,extremely slow,extremely fast,0.9567437490914017,0.399,4,4742,7,3,No
debug5B1ZMX:debugAJ5FRP,1459779773031,English,2,full,band,Q,empty,stage,no one,sold out,0.9744382821954787,0.514,5,2137,7,3,No
debug5B1ZMX:debugAJ5FRP,1459779776496,English,3,long,movie,P,long,individual,extremely short,extremely long,0.5777983430307359,0.0,7,3464,7,3,No
debug5B1ZMX:debugAJ5FRP,1459779779590,English,4,tall,US male,not-Q,not short,individual,extremely short,extremely tall,0.9605375332757831,1.0,1,3093,7,3,No
debug5B1ZMX:debugAJ5FRP,1459779783314,English,5,hot,bath,neither P nor Q,neither hot nor cold,stage,extremely cold,extremely hot,0.1166528060566634,0.0,7,3723,7,3,No
debug5B1ZMX:debugAJ5FRP,1459779787746,English,6,expensive,laptop,Q and not-Q,cheap and not cheap,individual,almost nothing,an enormous amount,0.403809703188017,1.0,1,4432,7,3,No
A24WQ0ZEGXHX6J:3A1COHJ8NK3ZWZJ53CW72C297RY8H4,1459788843475,english,1,hot,bath,neither Q nor not-Q,neither cold nor not cold,stage,extremely cold,extremely hot,0.15597988993970824,0.501,7,8734,7,2,
A24WQ0ZEGXHX6J:3A1COHJ8NK3ZWZJ53CW72C297RY8H4,1459788867524,english,2,full,band,Q,empty,stage,no one,sold out,0.9342205154756269,0.032,6,24049,7,2,
A24WQ0ZEGXHX6J:3A1COHJ8NK3ZWZJ53CW72C297RY8H4,1459788876526,english,3,expensive,laptop,neither P nor not-P,neither expensive nor not expensive,individual,almost nothing,an enormous amount,0.7412518690756038,0.431,7,9002,7,2,
A24WQ0ZEGXHX6J:3A1COHJ8NK3ZWZJ53CW72C297RY8H4,1459788884981,english,4,fast,car,P,fast,stage,extremely slow,extremely fast,0.12035048271654136,0.886,6,8455,7,2,
A24WQ0ZEGXHX6J:3A1COHJ8NK3ZWZJ53CW72C297RY8H4,1459788891090,english,5,tall,US male,neither P nor Q,neither tall nor short,individual,extremely short,extremely tall,0.5299697414555347,0.465,7,6109,7,2,
A24WQ0ZEGXHX6J:3A1COHJ8NK3ZWZJ53CW72C297RY8H4,1459788899433,english,6,long,movie,P and not-P,long and not long,individual,extremely short,extremely long,0.4337082986532901,0.485,2,8343,7,2,
A3L60SOWLYEDN2:3IKZ72A5B5O0LAF3EOXQHOGRG60NFN,1459780648299,English,1,expensive,laptop,Q,cheap,individual,almost nothing,an enormous amount,0.7082220127003385,0.569,4,14772,5,2,
A3L60SOWLYEDN2:3IKZ72A5B5O0LAF3EOXQHOGRG60NFN,1459780673460,English,2,full,band,neither P nor not-P,neither full nor not full,stage,no one,sold out,0.3389139024885446,0.773,1,25160,5,2,
A3L60SOWLYEDN2:3IKZ72A5B5O0LAF3EOXQHOGRG60NFN,1459780679404,English,3,fast,car,neither P nor Q,neither fast nor slow,stage,extremely slow,extremely fast,0.9636615580005639,0.492,4,5944,5,2,
A3L60SOWLYEDN2:3IKZ72A5B5O0LAF3EOXQHOGRG60NFN,1459780685751,English,4,tall,US male,not-P ,not tall,individual,extremely short,extremely tall,0.7370006374026654,0.373,5,6346,5,2,
A3L60SOWLYEDN2:3IKZ72A5B5O0LAF3EOXQHOGRG60NFN,1459780699769,English,5,hot,bath,neither Q nor not-Q,neither cold nor not cold,stage,extremely cold,extremely hot,0.7309791011243751,0.454,1,14017,5,2,
A3L60SOWLYEDN2:3IKZ72A5B5O0LAF3EOXQHOGRG60NFN,1459780706141,English,6,long,movie,Q and not-Q,short and not short,individual,extremely short,extremely long,0.5755672203464373,0.489,3,6371,5,2,
AF33681RI3ES8:3C8HJ7UOP82089L33ZCX7179NM3MZV,1459788990292,English,1,fast,car,P,fast,stage,extremely slow,extremely fast,0.0419684092466146,0.824,7,33356,8,1,No problems.
AF33681RI3ES8:3C8HJ7UOP82089L33ZCX7179NM3MZV,1459789000979,English,2,hot,bath,not-P ,not hot,stage,extremely cold,extremely hot,0.32072823825706465,0.247,6,10684,8,1,No problems.
AF33681RI3ES8:3C8HJ7UOP82089L33ZCX7179NM3MZV,1459789010602,English,3,long,movie,neither P nor not-P,neither long nor not long,individual,extremely short,extremely long,0.8090090978529132,0.278,1,9622,8,1,No problems.
AF33681RI3ES8:3C8HJ7UOP82089L33ZCX7179NM3MZV,1459789023587,English,4,tall,US male,not-Q,not short,individual,extremely short,extremely tall,0.009668383633674393,0.477,7,12984,8,1,No problems.
AF33681RI3ES8:3C8HJ7UOP82089L33ZCX7179NM3MZV,1459789035995,English,5,full,band,Q,empty,stage,no one,sold out,0.013001463867676089,0.138,7,12406,8,1,No problems.
AF33681RI3ES8:3C8HJ7UOP82089L33ZCX7179NM3MZV,1459789045652,English,6,expensive,laptop,Q and not-Q,cheap and not cheap,individual,almost nothing,an enormous amount,0.7231806354536561,0.451,1,9655,8,1,No problems.
A1L8EDNM7HZZAX:3AZHRG4CU5S2K273TNUQ53VH5NM30L,1459783701346,English,1,long,movie,Q,short,individual,extremely short,extremely long,0.1195822914430138,0.315,5,10636,10,0,Thanks.
A1L8EDNM7HZZAX:3AZHRG4CU5S2K273TNUQ53VH5NM30L,1459783708800,English,2,hot,bath,neither P nor Q,neither hot nor cold,stage,extremely cold,extremely hot,0.86717629220295,0.518,6,7453,10,0,Thanks.
A1L8EDNM7HZZAX:3AZHRG4CU5S2K273TNUQ53VH5NM30L,1459783716649,English,3,full,band,Q and not-Q,empty and not empty,stage,no one,sold out,0.780550817376584,0.494,5,7846,10,0,Thanks.
A1L8EDNM7HZZAX:3AZHRG4CU5S2K273TNUQ53VH5NM30L,1459783723921,English,4,tall,US male,neither Q nor not-Q,neither short nor not short,individual,extremely short,extremely tall,0.8903908675319692,0.502,5,7271,10,0,Thanks.
A1L8EDNM7HZZAX:3AZHRG4CU5S2K273TNUQ53VH5NM30L,1459783727544,English,5,expensive,laptop,P and not-P,expensive and not expensive,individual,almost nothing,an enormous amount,0.2810384046782155,0.511,6,3622,10,0,Thanks.
A1L8EDNM7HZZAX:3AZHRG4CU5S2K273TNUQ53VH5NM30L,1459783732095,English,6,fast,car,neither P nor not-P,neither fast nor not fast,stage,extremely slow,extremely fast,0.32951285912000583,0.507,5,4549,10,0,Thanks.
AFZ7Z5FOWM9VN:39JEC7537V96Q342PDTGJZP15WBCVJ,1459781347732,English,1,long,movie,Q and not-Q,short and not short,individual,extremely short,extremely long,0.9176720917350126,0.456,2,26530,6,3,no
AFZ7Z5FOWM9VN:39JEC7537V96Q342PDTGJZP15WBCVJ,1459781368202,English,2,tall,US male,not-Q,not short,individual,extremely short,extremely tall,0.04932226694952557,0.664,5,20463,6,3,no
AFZ7Z5FOWM9VN:39JEC7537V96Q342PDTGJZP15WBCVJ,1459781393973,English,3,fast,car,neither Q nor not-Q,neither slow nor not slow,stage,extremely slow,extremely fast,0.7991135178681428,0.546,4,25765,6,3,no
AFZ7Z5FOWM9VN:39JEC7537V96Q342PDTGJZP15WBCVJ,1459781405872,English,4,hot,bath,P,hot,stage,extremely cold,extremely hot,0.701675585419818,0.688,7,11895,6,3,no
AFZ7Z5FOWM9VN:39JEC7537V96Q342PDTGJZP15WBCVJ,1459781421501,English,5,expensive,laptop,neither P nor Q,neither expensive nor cheap,individual,almost nothing,an enormous amount,0.938693010285419,0.61,6,15622,6,3,no
AFZ7Z5FOWM9VN:39JEC7537V96Q342PDTGJZP15WBCVJ,1459781444421,English,6,full,band,not-P ,not full,stage,no one,sold out,0.6769753904420988,0.577,6,22916,6,3,no
A1GABEPSX2V15F:3MH9DQ757XKJU0V7M9FUD48XPHSUGK,1459782332262,English,1,fast,car,not-Q,not slow,stage,extremely slow,extremely fast,0.578241101124116,0.48,3,2819,8,3,
A1GABEPSX2V15F:3MH9DQ757XKJU0V7M9FUD48XPHSUGK,1459782334581,English,2,tall,US male,P and not-P,tall and not tall,individual,extremely short,extremely tall,0.13964566512986898,0.521,5,2303,8,3,
A1GABEPSX2V15F:3MH9DQ757XKJU0V7M9FUD48XPHSUGK,1459782339715,English,3,expensive,laptop,neither P nor not-P,neither expensive nor not expensive,individual,almost nothing,an enormous amount,0.44839105396660606,0.326,3,5134,8,3,
A1GABEPSX2V15F:3MH9DQ757XKJU0V7M9FUD48XPHSUGK,1459782342531,English,4,full,band,Q and not-Q,empty and not empty,stage,no one,sold out,0.7657825726206005,0.666,6,2816,8,3,
A1GABEPSX2V15F:3MH9DQ757XKJU0V7M9FUD48XPHSUGK,1459782345446,English,5,long,movie,P,long,individual,extremely short,extremely long,0.09255434276883712,0.554,4,2915,8,3,
A1GABEPSX2V15F:3MH9DQ757XKJU0V7M9FUD48XPHSUGK,1459782348116,English,6,hot,bath,neither Q nor not-Q,neither cold nor not cold,stage,extremely cold,extremely hot,0.37382997349651137,0.333,6,2654,8,3,
AZ223PTWQ4AYF:3FFJ6VRIL2WHA5PMEQ1D99X6O5J0II,1459783653347,english,1,long,movie,not-Q,not short,individual,extremely short,extremely long,0.5857821003870969,0.426,3,12399,8,2,
AZ223PTWQ4AYF:3FFJ6VRIL2WHA5PMEQ1D99X6O5J0II,1459783661983,english,2,hot,bath,P,hot,stage,extremely cold,extremely hot,0.13405955842531792,0.815,7,8634,8,2,
AZ223PTWQ4AYF:3FFJ6VRIL2WHA5PMEQ1D99X6O5J0II,1459783670135,english,3,tall,US male,not-P ,not tall,individual,extremely short,extremely tall,0.38737087018730754,0.341,3,8146,8,2,
AZ223PTWQ4AYF:3FFJ6VRIL2WHA5PMEQ1D99X6O5J0II,1459783679650,english,4,expensive,laptop,neither P nor Q,neither expensive nor cheap,individual,almost nothing,an enormous amount,0.17582090376580783,0.514,5,9513,8,2,
AZ223PTWQ4AYF:3FFJ6VRIL2WHA5PMEQ1D99X6O5J0II,1459783691467,english,5,full,band,neither P nor not-P,neither full nor not full,stage,no one,sold out,0.45694520626400226,0.357,2,11815,8,2,
AZ223PTWQ4AYF:3FFJ6VRIL2WHA5PMEQ1D99X6O5J0II,1459783697497,english,6,fast,car,Q,slow,stage,extremely slow,extremely fast,0.6437011191039741,0.22,7,6027,8,2,
A3NQ988D43B0JW:3Z4XG4ZF49ZWIPJK8GET5YQ3VGZX82,1459784527272,English,1,expensive,laptop,neither P nor not-P,neither expensive nor not expensive,individual,almost nothing,an enormous amount,0.0659819602979379,0.749,6,17320,7,0,
A3NQ988D43B0JW:3Z4XG4ZF49ZWIPJK8GET5YQ3VGZX82,1459784535192,English,2,fast,car,Q,slow,stage,extremely slow,extremely fast,0.43146372969537716,0.323,6,7918,7,0,
A3NQ988D43B0JW:3Z4XG4ZF49ZWIPJK8GET5YQ3VGZX82,1459784553463,English,3,full,band,Q and not-Q,empty and not empty,stage,no one,sold out,0.40846312648171845,0.74,5,18271,7,0,
A3NQ988D43B0JW:3Z4XG4ZF49ZWIPJK8GET5YQ3VGZX82,1459784574645,English,4,hot,bath,not-Q,not cold,stage,extremely cold,extremely hot,0.7649340936930513,0.693,4,21180,7,0,
A3NQ988D43B0JW:3Z4XG4ZF49ZWIPJK8GET5YQ3VGZX82,1459784590394,English,5,long,movie,neither P nor Q,neither long nor short,individual,extremely short,extremely long,0.3795964546768271,0.532,3,15748,7,0,
A3NQ988D43B0JW:3Z4XG4ZF49ZWIPJK8GET5YQ3VGZX82,1459784599328,English,6,tall,US male,P,tall,individual,extremely short,extremely tall,0.3405379625626186,0.519,1,8932,7,0,
A10DCC73F2CKHC:3X08E93BHWQWVWG0EE85L7HSSHA66V,1459786410853,English,1,hot,bath,neither P nor Q,neither hot nor cold,stage,extremely cold,extremely hot,0.4302952471189201,0.488,7,12764,7,2,No.
A10DCC73F2CKHC:3X08E93BHWQWVWG0EE85L7HSSHA66V,1459786420290,English,2,tall,US male,P and not-P,tall and not tall,individual,extremely short,extremely tall,0.012241289019584656,0.504,2,9434,7,2,No.
A10DCC73F2CKHC:3X08E93BHWQWVWG0EE85L7HSSHA66V,1459786444815,English,3,long,movie,P,long,individual,extremely short,extremely long,0.7613861865829676,0.817,7,24522,7,2,No.
A10DCC73F2CKHC:3X08E93BHWQWVWG0EE85L7HSSHA66V,1459786450193,English,4,full,band,neither P nor not-P,neither full nor not full,stage,no one,sold out,0.7398737149778754,0.481,2,5375,7,2,No.
A10DCC73F2CKHC:3X08E93BHWQWVWG0EE85L7HSSHA66V,1459786456673,English,5,fast,car,neither Q nor not-Q,neither slow nor not slow,stage,extremely slow,extremely fast,0.032468805089592934,0.515,2,6479,7,2,No.
A10DCC73F2CKHC:3X08E93BHWQWVWG0EE85L7HSSHA66V,1459786462275,English,6,expensive,laptop,Q,cheap,individual,almost nothing,an enormous amount,0.37522345408797264,0.136,7,5600,7,2,No.
A268SWOS479FCX:34S9DKFK74X6L1WYJEPE69N7MHSYNX,1459783811427,English,1,full,band,P,full,stage,no one,sold out,0.8572542427124514,0.947,7,12947,6,0,
A268SWOS479FCX:34S9DKFK74X6L1WYJEPE69N7MHSYNX,1459783830740,English,2,long,movie,neither Q nor not-Q,neither short nor not short,individual,extremely short,extremely long,0.501079431845759,1.0,2,19312,6,0,
A268SWOS479FCX:34S9DKFK74X6L1WYJEPE69N7MHSYNX,1459783838338,English,3,fast,car,Q,slow,stage,extremely slow,extremely fast,0.8375355104835402,0.205,5,7597,6,0,
A268SWOS479FCX:34S9DKFK74X6L1WYJEPE69N7MHSYNX,1459783846315,English,4,hot,bath,Q and not-Q,cold and not cold,stage,extremely cold,extremely hot,0.28000275048032597,0.465,2,7976,6,0,
A268SWOS479FCX:34S9DKFK74X6L1WYJEPE69N7MHSYNX,1459783853418,English,5,tall,US male,not-P ,not tall,individual,extremely short,extremely tall,0.409999143278025,0.21,7,7103,6,0,
A268SWOS479FCX:34S9DKFK74X6L1WYJEPE69N7MHSYNX,1459783862518,English,6,expensive,laptop,P and not-P,expensive and not expensive,individual,almost nothing,an enormous amount,0.8022613647453725,0.792,5,9099,6,0,
A18O3JKHEFHU3V:3B837J3LDP4U4DCHDFE6X74G6U0RSH,1459787751969,english,1,fast,car,neither P nor Q,neither fast nor slow,stage,extremely slow,extremely fast,0.02296227572835363,0.525,4,28776,9,0,no
A18O3JKHEFHU3V:3B837J3LDP4U4DCHDFE6X74G6U0RSH,1459787777562,english,2,full,band,P,full,stage,no one,sold out,0.8175576470158796,0.366,3,25591,9,0,no
A18O3JKHEFHU3V:3B837J3LDP4U4DCHDFE6X74G6U0RSH,1459787800542,english,3,tall,US male,P and not-P,tall and not tall,individual,extremely short,extremely tall,0.4476338600186427,0.501,2,22979,9,0,no
A18O3JKHEFHU3V:3B837J3LDP4U4DCHDFE6X74G6U0RSH,1459787825290,english,4,expensive,laptop,neither Q nor not-Q,neither cheap nor not cheap,individual,almost nothing,an enormous amount,0.996880197911485,0.466,1,24746,9,0,no
A18O3JKHEFHU3V:3B837J3LDP4U4DCHDFE6X74G6U0RSH,1459787846906,english,5,long,movie,not-P ,not long,individual,extremely short,extremely long,0.5787866506513657,0.495,2,21613,9,0,no
A18O3JKHEFHU3V:3B837J3LDP4U4DCHDFE6X74G6U0RSH,1459787867870,english,6,hot,bath,Q and not-Q,cold and not cold,stage,extremely cold,extremely hot,0.25280658582179427,0.529,1,20961,9,0,no
A20L6EMMVJ8Y69:3NAPMVF0ZXNRHVB4AM1U180C7NR72D,1459781091916,English,1,full,band,neither P nor not-P,neither full nor not full,stage,no one,sold out,0.4431514728929723,0.508,1,20967,2,1,
A20L6EMMVJ8Y69:3NAPMVF0ZXNRHVB4AM1U180C7NR72D,1459781109530,English,2,tall,US male,neither P nor Q,neither tall nor short,individual,extremely short,extremely tall,0.18379651066306923,0.518,5,17611,2,1,
A20L6EMMVJ8Y69:3NAPMVF0ZXNRHVB4AM1U180C7NR72D,1459781119818,English,3,long,movie,neither Q nor not-Q,neither short nor not short,individual,extremely short,extremely long,0.6384038291403534,0.507,2,10282,2,1,
A20L6EMMVJ8Y69:3NAPMVF0ZXNRHVB4AM1U180C7NR72D,1459781131606,English,4,hot,bath,P and not-P,hot and not hot,stage,extremely cold,extremely hot,0.08251214763566683,0.864,2,11786,2,1,
A20L6EMMVJ8Y69:3NAPMVF0ZXNRHVB4AM1U180C7NR72D,1459781143101,English,5,expensive,laptop,P,expensive,individual,almost nothing,an enormous amount,0.9140464267251334,0.947,7,11491,2,1,
A20L6EMMVJ8Y69:3NAPMVF0ZXNRHVB4AM1U180C7NR72D,1459781161250,English,6,fast,car,not-Q,not slow,stage,extremely slow,extremely fast,0.39184030692201355,0.705,6,18146,2,1,
AAF1SJ9FCBF75:3O7L7BFSHFXG1V4GMX0SUYZAI7BIE6,1459788286373,english,1,full,band,neither P nor Q,neither full nor empty,stage,no one,sold out,0.7181575168594055,0.445,2,56589,6,2,no comments 
AAF1SJ9FCBF75:3O7L7BFSHFXG1V4GMX0SUYZAI7BIE6,1459788309219,english,2,hot,bath,Q,cold,stage,extremely cold,extremely hot,0.5416974673148596,0.309,6,22841,6,2,no comments 
AAF1SJ9FCBF75:3O7L7BFSHFXG1V4GMX0SUYZAI7BIE6,1459788341875,english,3,tall,US male,Q and not-Q,short and not short,individual,extremely short,extremely tall,0.7084413152675737,0.493,1,32651,6,2,no comments 
AAF1SJ9FCBF75:3O7L7BFSHFXG1V4GMX0SUYZAI7BIE6,1459788363233,english,4,long,movie,P,long,individual,extremely short,extremely long,0.9087959752231575,0.689,6,21354,6,2,no comments 
AAF1SJ9FCBF75:3O7L7BFSHFXG1V4GMX0SUYZAI7BIE6,1459788406632,english,5,expensive,laptop,neither Q nor not-Q,neither cheap nor not cheap,individual,almost nothing,an enormous amount,0.7148954100633632,0.492,2,43397,6,2,no comments 
AAF1SJ9FCBF75:3O7L7BFSHFXG1V4GMX0SUYZAI7BIE6,1459788454071,english,6,fast,car,not-P ,not fast,stage,extremely slow,extremely fast,0.9942441301929069,0.489,3,47437,6,2,no comments 
A18G2CLYSTENK:3CCZ6YKWR8RNUBIK721CDBUUMN795T,1459786602433,English,1,full,band,neither Q nor not-Q,neither empty nor not empty,stage,no one,sold out,0.13627985139247611,0.529,5,6079,5,0,No additional comments.
A18G2CLYSTENK:3CCZ6YKWR8RNUBIK721CDBUUMN795T,1459786608988,English,2,fast,car,P,fast,stage,extremely slow,extremely fast,0.3340884889306628,0.695,3,6554,5,0,No additional comments.
A18G2CLYSTENK:3CCZ6YKWR8RNUBIK721CDBUUMN795T,1459786622810,English,3,hot,bath,Q,cold,stage,extremely cold,extremely hot,0.9363994204868773,0.202,5,13821,5,0,No additional comments.
A18G2CLYSTENK:3CCZ6YKWR8RNUBIK721CDBUUMN795T,1459786630695,English,4,tall,US male,P and not-P,tall and not tall,individual,extremely short,extremely tall,0.2164919256261566,0.501,2,7884,5,0,No additional comments.
A18G2CLYSTENK:3CCZ6YKWR8RNUBIK721CDBUUMN795T,1459786636044,English,5,long,movie,Q and not-Q,short and not short,individual,extremely short,extremely long,0.5905847313432484,0.493,4,5348,5,0,No additional comments.
