id,itemTime,language,trial,antonymPair,scenarioLabel,expressionLabel,expression,predicateType,labelLower,labelHigher,startingValue,answer,naturalness,RT,engagement,difficulty,comments
A23TQQBMP0WE0X:3H0W84IWBLATUU7ZCKU18Q0152CERM,1459784778576,English,1,hot,bath,neither Q nor not-Q,neither cold nor not cold,stage,extremely cold,extremely hot,0.6086501624846121,0.48,2,12795,5,0,no
A23TQQBMP0WE0X:3H0W84IWBLATUU7ZCKU18Q0152CERM,1459784789628,English,2,long,movie,P,long,individual,extremely short,extremely long,0.6786589994119531,0.729,5,11036,5,0,no
A23TQQBMP0WE0X:3H0W84IWBLATUU7ZCKU18Q0152CERM,1459784797394,English,3,tall,US male,Q,short,individual,extremely short,extremely tall,0.4316699670943158,0.234,7,7750,5,0,no
A23TQQBMP0WE0X:3H0W84IWBLATUU7ZCKU18Q0152CERM,1459784812313,English,4,fast,car,P and not-P,fast and not fast,stage,extremely slow,extremely fast,0.32178058205750604,0.487,1,14910,5,0,no
A23TQQBMP0WE0X:3H0W84IWBLATUU7ZCKU18Q0152CERM,1459784822663,English,5,full,band,neither P nor Q,neither full nor empty,stage,no one,sold out,0.9704185147417418,0.493,3,10336,5,0,no
A23TQQBMP0WE0X:3H0W84IWBLATUU7ZCKU18Q0152CERM,1459784833588,English,6,expensive,laptop,not-P ,not expensive,individual,almost nothing,an enormous amount,0.4753906781016435,0.49,6,10917,5,0,no
AJZ9B93NZ2IST:3PMBY0YE28B8TWRZMCOKRH04E5CC9P,1459788381901,english,1,full,band,neither Q nor not-Q,neither empty nor not empty,stage,no one,sold out,0.6332957235507082,0.513,3,24914,5,0,
AJZ9B93NZ2IST:3PMBY0YE28B8TWRZMCOKRH04E5CC9P,1459788403094,english,2,fast,car,Q,slow,stage,extremely slow,extremely fast,0.7705558585499286,0.209,6,21188,5,0,
AJZ9B93NZ2IST:3PMBY0YE28B8TWRZMCOKRH04E5CC9P,1459788425265,english,3,tall,US male,P and not-P,tall and not tall,individual,extremely short,extremely tall,0.5663407831186578,0.752,2,22167,5,0,
AJZ9B93NZ2IST:3PMBY0YE28B8TWRZMCOKRH04E5CC9P,1459788453692,english,4,expensive,laptop,neither P nor Q,neither expensive nor cheap,individual,almost nothing,an enormous amount,0.7700645478801069,0.514,4,28422,5,0,
AJZ9B93NZ2IST:3PMBY0YE28B8TWRZMCOKRH04E5CC9P,1459788471452,english,5,long,movie,P,long,individual,extremely short,extremely long,0.029221728579045037,0.79,7,17755,5,0,
AJZ9B93NZ2IST:3PMBY0YE28B8TWRZMCOKRH04E5CC9P,1459788488575,english,6,hot,bath,Q and not-Q,cold and not cold,stage,extremely cold,extremely hot,0.6161881196824042,0.202,2,17119,5,0,
AOUBZSI237USA:3QY5DC2MXSSDG0ZCBP9CVJ8LO2UFU8,1459781768687,english,1,hot,bath,Q and not-Q,cold and not cold,stage,extremely cold,extremely hot,0.6668248737790825,0.495,2,13548,5,1,
AOUBZSI237USA:3QY5DC2MXSSDG0ZCBP9CVJ8LO2UFU8,1459781786069,english,2,full,band,not-P ,not full,stage,no one,sold out,0.21222440394474562,0.651,4,17380,5,1,
AOUBZSI237USA:3QY5DC2MXSSDG0ZCBP9CVJ8LO2UFU8,1459781795141,english,3,long,movie,P,long,individual,extremely short,extremely long,0.02947449520498835,0.785,6,9070,5,1,
AOUBZSI237USA:3QY5DC2MXSSDG0ZCBP9CVJ8LO2UFU8,1459781803448,english,4,expensive,laptop,not-Q,not cheap,individual,almost nothing,an enormous amount,0.5057240943665517,0.742,6,8306,5,1,
AOUBZSI237USA:3QY5DC2MXSSDG0ZCBP9CVJ8LO2UFU8,1459781810728,english,5,fast,car,neither Q nor not-Q,neither slow nor not slow,stage,extremely slow,extremely fast,0.5193165909112478,0.498,2,7279,5,1,
AOUBZSI237USA:3QY5DC2MXSSDG0ZCBP9CVJ8LO2UFU8,1459781822664,english,6,tall,US male,Q,short,individual,extremely short,extremely tall,0.8305153285522915,0.213,6,11934,5,1,
A129FZ067I43UD:3OWEPKL08AKN6H0XW5ZETW3AIII7N4,1459781361519,English,1,expensive,laptop,neither Q nor not-Q,neither cheap nor not cheap,individual,almost nothing,an enormous amount,0.8858437365420821,0.484,3,21135,8,2,No
A129FZ067I43UD:3OWEPKL08AKN6H0XW5ZETW3AIII7N4,1459781378445,English,2,full,band,Q,empty,stage,no one,sold out,0.5041994190490635,0.0,4,16924,8,2,No
A129FZ067I43UD:3OWEPKL08AKN6H0XW5ZETW3AIII7N4,1459781387305,English,3,fast,car,Q and not-Q,slow and not slow,stage,extremely slow,extremely fast,0.7825134094702986,0.486,1,8858,8,2,No
A129FZ067I43UD:3OWEPKL08AKN6H0XW5ZETW3AIII7N4,1459781403113,English,4,long,movie,not-Q,not short,individual,extremely short,extremely long,0.4282726834988684,0.635,4,15806,8,2,No
A129FZ067I43UD:3OWEPKL08AKN6H0XW5ZETW3AIII7N4,1459781418746,English,5,hot,bath,neither P nor not-P,neither hot nor not hot,stage,extremely cold,extremely hot,0.39232102249497003,0.5,2,15632,8,2,No
A129FZ067I43UD:3OWEPKL08AKN6H0XW5ZETW3AIII7N4,1459781428576,English,6,tall,US male,P and not-P,tall and not tall,individual,extremely short,extremely tall,0.36171201855569035,0.512,1,9829,8,2,No
ALDQRWYZ8KQ9A:373ERPL3YPGVJDPW2FJW7C028CXRTN,1459782894560,English,1,full,band,neither P nor not-P,neither full nor not full,stage,no one,sold out,0.01264742042075917,0.587,3,30417,8,0,Thanks :)
ALDQRWYZ8KQ9A:373ERPL3YPGVJDPW2FJW7C028CXRTN,1459782922427,English,2,fast,car,Q and not-Q,slow and not slow,stage,extremely slow,extremely fast,0.5770437570651321,0.412,1,27867,8,0,Thanks :)
ALDQRWYZ8KQ9A:373ERPL3YPGVJDPW2FJW7C028CXRTN,1459782936541,English,3,expensive,laptop,P and not-P,expensive and not expensive,individual,almost nothing,an enormous amount,0.3268485465395401,0.596,2,14114,8,0,Thanks :)
ALDQRWYZ8KQ9A:373ERPL3YPGVJDPW2FJW7C028CXRTN,1459782952839,English,4,hot,bath,neither P nor Q,neither hot nor cold,stage,extremely cold,extremely hot,0.38162705220732285,0.62,5,16298,8,0,Thanks :)
ALDQRWYZ8KQ9A:373ERPL3YPGVJDPW2FJW7C028CXRTN,1459782962606,English,5,long,movie,P,long,individual,extremely short,extremely long,0.96934521195405,0.851,7,9767,8,0,Thanks :)
ALDQRWYZ8KQ9A:373ERPL3YPGVJDPW2FJW7C028CXRTN,1459782975838,English,6,tall,US male,Q,short,individual,extremely short,extremely tall,0.8517869983084285,0.242,7,13232,8,0,Thanks :)
A2WKZI3JQCE3Z6:3TVSS0C0E280R96I19T2UB8J0RBWTU,1459780745903,English,1,long,movie,P and not-P,long and not long,individual,extremely short,extremely long,0.7296270952394279,0.485,1,9463,10,0,
A2WKZI3JQCE3Z6:3TVSS0C0E280R96I19T2UB8J0RBWTU,1459780752607,English,2,hot,bath,Q and not-Q,cold and not cold,stage,extremely cold,extremely hot,0.80694386540305,0.496,1,6699,10,0,
A2WKZI3JQCE3Z6:3TVSS0C0E280R96I19T2UB8J0RBWTU,1459780765254,English,3,full,band,Q,empty,stage,no one,sold out,0.7650011252317672,0.0,2,12640,10,0,
A2WKZI3JQCE3Z6:3TVSS0C0E280R96I19T2UB8J0RBWTU,1459780777828,English,4,tall,US male,not-Q,not short,individual,extremely short,extremely tall,0.7293420677760475,0.726,6,12571,10,0,
A2WKZI3JQCE3Z6:3TVSS0C0E280R96I19T2UB8J0RBWTU,1459780790459,English,5,expensive,laptop,neither Q nor not-Q,neither cheap nor not cheap,individual,almost nothing,an enormous amount,0.47978163037922783,0.476,2,12625,10,0,
A2WKZI3JQCE3Z6:3TVSS0C0E280R96I19T2UB8J0RBWTU,1459780797158,English,6,fast,car,neither P nor not-P,neither fast nor not fast,stage,extremely slow,extremely fast,0.9246147567435027,0.498,1,6693,10,0,
A2VQ1WGHLLLNJ1:3NPI0JQDAPDA709HPNF72H0N7V9PTV,1459798726409,English,1,fast,car,neither P nor Q,neither fast nor slow,stage,extremely slow,extremely fast,0.263171590471738,0.511,4,4748,9,2,
A2VQ1WGHLLLNJ1:3NPI0JQDAPDA709HPNF72H0N7V9PTV,1459798731571,English,2,long,movie,not-Q,not short,individual,extremely short,extremely long,0.9010414261575876,0.492,4,5162,9,2,
A2VQ1WGHLLLNJ1:3NPI0JQDAPDA709HPNF72H0N7V9PTV,1459798736503,English,3,hot,bath,P,hot,stage,extremely cold,extremely hot,0.17600787180837618,0.713,4,4931,9,2,
A2VQ1WGHLLLNJ1:3NPI0JQDAPDA709HPNF72H0N7V9PTV,1459798741350,English,4,tall,US male,neither P nor not-P,neither tall nor not tall,individual,extremely short,extremely tall,0.34058865386845016,0.505,4,4847,9,2,
A2VQ1WGHLLLNJ1:3NPI0JQDAPDA709HPNF72H0N7V9PTV,1459798745488,English,5,expensive,laptop,Q and not-Q,cheap and not cheap,individual,almost nothing,an enormous amount,0.19841034390171686,0.892,4,4137,9,2,
A2VQ1WGHLLLNJ1:3NPI0JQDAPDA709HPNF72H0N7V9PTV,1459798748823,English,6,full,band,not-P ,not full,stage,no one,sold out,0.5428407791749863,0.807,4,3334,9,2,
A002160837SWJFPIAI7L7:36W0OB37HXMEGVKSC2WKFWZD6ZLZHE,1459781455014,English,1,long,movie,neither Q nor not-Q,neither short nor not short,individual,extremely short,extremely long,0.3955234846732587,0.477,4,8140,6,0,
A002160837SWJFPIAI7L7:36W0OB37HXMEGVKSC2WKFWZD6ZLZHE,1459781461584,English,2,expensive,laptop,not-Q,not cheap,individual,almost nothing,an enormous amount,0.36654050811566274,0.74,7,6569,6,0,
A002160837SWJFPIAI7L7:36W0OB37HXMEGVKSC2WKFWZD6ZLZHE,1459781469497,English,3,fast,car,Q and not-Q,slow and not slow,stage,extremely slow,extremely fast,0.43835315017686427,0.477,1,7911,6,0,
A002160837SWJFPIAI7L7:36W0OB37HXMEGVKSC2WKFWZD6ZLZHE,1459781473953,English,4,tall,US male,Q,short,individual,extremely short,extremely tall,0.3191568080809226,0.289,7,4456,6,0,
A002160837SWJFPIAI7L7:36W0OB37HXMEGVKSC2WKFWZD6ZLZHE,1459781485389,English,5,full,band,P,full,stage,no one,sold out,0.6396145339664514,1.0,7,11435,6,0,
A002160837SWJFPIAI7L7:36W0OB37HXMEGVKSC2WKFWZD6ZLZHE,1459781494069,English,6,hot,bath,neither P nor Q,neither hot nor cold,stage,extremely cold,extremely hot,0.9763545611156381,0.485,4,8679,6,0,
A2G57M3XD1AIBS:39ASUFLU6YFDRQTBLJ0TX8MP6KPXEV,1459792897566,English,1,long,movie,neither P nor not-P,neither long nor not long,individual,extremely short,extremely long,0.5984621600413405,0.489,7,17812,10,0,
A2G57M3XD1AIBS:39ASUFLU6YFDRQTBLJ0TX8MP6KPXEV,1459792909237,English,2,fast,car,Q and not-Q,slow and not slow,stage,extremely slow,extremely fast,0.8611172635609647,0.472,1,11667,10,0,
A2G57M3XD1AIBS:39ASUFLU6YFDRQTBLJ0TX8MP6KPXEV,1459792919496,English,3,tall,US male,not-Q,not short,individual,extremely short,extremely tall,0.7353866706918475,0.797,7,10256,10,0,
A2G57M3XD1AIBS:39ASUFLU6YFDRQTBLJ0TX8MP6KPXEV,1459792927439,English,4,full,band,Q,empty,stage,no one,sold out,0.18078479973980066,0.006,7,7942,10,0,
A2G57M3XD1AIBS:39ASUFLU6YFDRQTBLJ0TX8MP6KPXEV,1459792935628,English,5,hot,bath,not-P ,not hot,stage,extremely cold,extremely hot,0.9448386774863087,0.37,6,8186,10,0,
A2G57M3XD1AIBS:39ASUFLU6YFDRQTBLJ0TX8MP6KPXEV,1459792941431,English,6,expensive,laptop,neither P nor Q,neither expensive nor cheap,individual,almost nothing,an enormous amount,0.5738791174220768,0.502,7,5801,10,0,
AJAOE1PSNKGUE:33L7PJKHCH6P18A036DWGV5XILUT80,1459788709522,english,1,expensive,laptop,neither P nor not-P,neither expensive nor not expensive,individual,almost nothing,an enormous amount,0.07092397722274568,0.502,3,13874,7,0,"no
"
AJAOE1PSNKGUE:33L7PJKHCH6P18A036DWGV5XILUT80,1459788720409,english,2,fast,car,P,fast,stage,extremely slow,extremely fast,0.4036130761234994,0.656,5,10881,7,0,"no
"
AJAOE1PSNKGUE:33L7PJKHCH6P18A036DWGV5XILUT80,1459788728800,english,3,tall,US male,not-P ,not tall,individual,extremely short,extremely tall,0.2670149973654177,0.307,1,8386,7,0,"no
"
AJAOE1PSNKGUE:33L7PJKHCH6P18A036DWGV5XILUT80,1459788735913,english,4,long,movie,not-Q,not short,individual,extremely short,extremely long,0.4949863968753627,0.691,2,7109,7,0,"no
"
AJAOE1PSNKGUE:33L7PJKHCH6P18A036DWGV5XILUT80,1459788743377,english,5,hot,bath,P and not-P,hot and not hot,stage,extremely cold,extremely hot,0.07624989698964402,0.521,1,7457,7,0,"no
"
AJAOE1PSNKGUE:33L7PJKHCH6P18A036DWGV5XILUT80,1459788752970,english,6,full,band,Q,empty,stage,no one,sold out,0.35088160809525515,0.0,7,9586,7,0,"no
"
A3FPXLLF0B8CIC:3MTMREQS4WQVCD79V92LZ6IRC2UAWR,1459787295458,english,1,tall,US male,neither Q nor not-Q,neither short nor not short,individual,extremely short,extremely tall,0.05896672389723112,0.531,5,11846,10,0,good survey
A3FPXLLF0B8CIC:3MTMREQS4WQVCD79V92LZ6IRC2UAWR,1459787304206,english,2,hot,bath,neither P nor Q,neither hot nor cold,stage,extremely cold,extremely hot,0.7066532101151286,0.51,6,8746,10,0,good survey
A3FPXLLF0B8CIC:3MTMREQS4WQVCD79V92LZ6IRC2UAWR,1459787312804,english,3,long,movie,P,long,individual,extremely short,extremely long,0.41057778834851644,0.777,7,8598,10,0,good survey
A3FPXLLF0B8CIC:3MTMREQS4WQVCD79V92LZ6IRC2UAWR,1459787320223,english,4,fast,car,Q,slow,stage,extremely slow,extremely fast,0.9859011395026418,0.274,7,7403,10,0,good survey
A3FPXLLF0B8CIC:3MTMREQS4WQVCD79V92LZ6IRC2UAWR,1459787329188,english,5,full,band,P and not-P,full and not full,stage,no one,sold out,0.4289220227763293,0.438,2,8965,10,0,good survey
A3FPXLLF0B8CIC:3MTMREQS4WQVCD79V92LZ6IRC2UAWR,1459787336872,english,6,expensive,laptop,not-P ,not expensive,individual,almost nothing,an enormous amount,0.6481976291448441,0.141,5,7684,10,0,good survey
ABE0TGK79GGLA:3FE2ERCCZYGUU849T6T887U08MSOP6,1459781057280,Telugu,1,expensive,laptop,neither Q nor not-Q,neither cheap nor not cheap,individual,almost nothing,an enormous amount,0.8122984095185015,0.509,2,24712,4,3,nothing.thanks
ABE0TGK79GGLA:3FE2ERCCZYGUU849T6T887U08MSOP6,1459781066903,Telugu,2,fast,car,neither P nor not-P,neither fast nor not fast,stage,extremely slow,extremely fast,0.4002203828512252,0.516,2,9622,4,3,nothing.thanks
ABE0TGK79GGLA:3FE2ERCCZYGUU849T6T887U08MSOP6,1459781081807,Telugu,3,long,movie,not-P ,not long,individual,extremely short,extremely long,0.40945951283809334,0.332,6,14903,4,3,nothing.thanks
ABE0TGK79GGLA:3FE2ERCCZYGUU849T6T887U08MSOP6,1459781100088,Telugu,4,full,band,P,full,stage,no one,sold out,0.8990822776733849,0.917,6,18277,4,3,nothing.thanks
ABE0TGK79GGLA:3FE2ERCCZYGUU849T6T887U08MSOP6,1459781112432,Telugu,5,hot,bath,P and not-P,hot and not hot,stage,extremely cold,extremely hot,0.9627125226576585,0.508,1,12342,4,3,nothing.thanks
ABE0TGK79GGLA:3FE2ERCCZYGUU849T6T887U08MSOP6,1459781124296,Telugu,6,tall,US male,Q,short,individual,extremely short,extremely tall,0.3376502571539015,0.308,6,11863,4,3,nothing.thanks
A321AGEY23DDEH:36TFCYNS45IPB0KDBK8ZIBJ2YZNHXZ,1459782396669,English,1,full,band,Q,empty,stage,no one,sold out,0.004014223454142485,0.0,7,8491,8,0,
A321AGEY23DDEH:36TFCYNS45IPB0KDBK8ZIBJ2YZNHXZ,1459782409080,English,2,expensive,laptop,not-Q,not cheap,individual,almost nothing,an enormous amount,0.6233838592927929,0.524,7,12409,8,0,
A321AGEY23DDEH:36TFCYNS45IPB0KDBK8ZIBJ2YZNHXZ,1459782418944,English,3,fast,car,neither P nor not-P,neither fast nor not fast,stage,extremely slow,extremely fast,0.3427590235362812,0.522,3,9861,8,0,
A321AGEY23DDEH:36TFCYNS45IPB0KDBK8ZIBJ2YZNHXZ,1459782424794,English,4,hot,bath,P,hot,stage,extremely cold,extremely hot,0.537887822853053,0.749,7,5848,8,0,
A321AGEY23DDEH:36TFCYNS45IPB0KDBK8ZIBJ2YZNHXZ,1459782432762,English,5,tall,US male,P and not-P,tall and not tall,individual,extremely short,extremely tall,0.35223162906337735,0.511,2,7966,8,0,
A321AGEY23DDEH:36TFCYNS45IPB0KDBK8ZIBJ2YZNHXZ,1459782439689,English,6,long,movie,neither Q nor not-Q,neither short nor not short,individual,extremely short,extremely long,0.4575274244287104,0.478,2,6925,8,0,
A2FM87EO99KRQ7:3TESA3PJ32I092MKOAM3ZZB08H1MMS,1459780378422,English,1,tall,US male,P,tall,individual,extremely short,extremely tall,0.46073089779454435,0.721,7,14837,8,2,
A2FM87EO99KRQ7:3TESA3PJ32I092MKOAM3ZZB08H1MMS,1459780390829,English,2,expensive,laptop,P and not-P,expensive and not expensive,individual,almost nothing,an enormous amount,0.1965257918292851,0.504,1,12404,8,2,
A2FM87EO99KRQ7:3TESA3PJ32I092MKOAM3ZZB08H1MMS,1459780398583,English,3,fast,car,not-Q,not slow,stage,extremely slow,extremely fast,0.14749776154045446,0.767,5,7751,8,2,
A2FM87EO99KRQ7:3TESA3PJ32I092MKOAM3ZZB08H1MMS,1459780406439,English,4,full,band,not-P ,not full,stage,no one,sold out,0.3910057990732896,0.229,7,7854,8,2,
A2FM87EO99KRQ7:3TESA3PJ32I092MKOAM3ZZB08H1MMS,1459780413647,English,5,hot,bath,Q,cold,stage,extremely cold,extremely hot,0.14564221721566528,0.1,7,7206,8,2,
A2FM87EO99KRQ7:3TESA3PJ32I092MKOAM3ZZB08H1MMS,1459780420606,English,6,long,movie,neither P nor Q,neither long nor short,individual,extremely short,extremely long,0.6410365534813405,0.494,5,6957,8,2,
A2U51SPL4KNIIX:3YJ6NA41JCOGTXDCDT130BDE9SKJPK,1459784357262,English,1,long,movie,P,long,individual,extremely short,extremely long,0.4301984890405607,0.699,6,15767,6,1,Thank you!
A2U51SPL4KNIIX:3YJ6NA41JCOGTXDCDT130BDE9SKJPK,1459784372145,English,2,expensive,laptop,P and not-P,expensive and not expensive,individual,almost nothing,an enormous amount,0.15886214048353386,0.511,2,14879,6,1,Thank you!
A2U51SPL4KNIIX:3YJ6NA41JCOGTXDCDT130BDE9SKJPK,1459784387968,English,3,full,band,neither P nor Q,neither full nor empty,stage,no one,sold out,0.2412109386721023,0.512,3,15819,6,1,Thank you!
A2U51SPL4KNIIX:3YJ6NA41JCOGTXDCDT130BDE9SKJPK,1459784401319,English,4,fast,car,Q and not-Q,slow and not slow,stage,extremely slow,extremely fast,0.7970165761761396,0.511,2,13348,6,1,Thank you!
A2U51SPL4KNIIX:3YJ6NA41JCOGTXDCDT130BDE9SKJPK,1459784409186,English,5,tall,US male,neither P nor not-P,neither tall nor not tall,individual,extremely short,extremely tall,0.5790744491596125,0.515,2,7864,6,1,Thank you!
A2U51SPL4KNIIX:3YJ6NA41JCOGTXDCDT130BDE9SKJPK,1459784417785,English,6,hot,bath,Q,cold,stage,extremely cold,extremely hot,0.404779614257176,0.195,6,8592,6,1,Thank you!
A2WC2NO555XU3J:3TE3O85731G1ZEVJJ0Z06PRC8ZMR2X,1459784306450,English,1,long,movie,P and not-P,long and not long,individual,extremely short,extremely long,0.3544340132368142,0.617,1,14440,8,0,"no comments
"
A2WC2NO555XU3J:3TE3O85731G1ZEVJJ0Z06PRC8ZMR2X,1459784324442,English,2,full,band,neither P nor not-P,neither full nor not full,stage,no one,sold out,0.6761281360827113,0.619,1,17988,8,0,"no comments
"
A2WC2NO555XU3J:3TE3O85731G1ZEVJJ0Z06PRC8ZMR2X,1459784335339,English,3,expensive,laptop,not-Q,not cheap,individual,almost nothing,an enormous amount,0.24174450234338907,0.813,5,10895,8,0,"no comments
"
A2WC2NO555XU3J:3TE3O85731G1ZEVJJ0Z06PRC8ZMR2X,1459784349784,English,4,fast,car,neither Q nor not-Q,neither slow nor not slow,stage,extremely slow,extremely fast,0.6849604071406065,0.522,1,14443,8,0,"no comments
"
A2WC2NO555XU3J:3TE3O85731G1ZEVJJ0Z06PRC8ZMR2X,1459784359330,English,5,tall,US male,not-P ,not tall,individual,extremely short,extremely tall,0.571232873331744,0.35,7,9544,8,0,"no comments
"
A2WC2NO555XU3J:3TE3O85731G1ZEVJJ0Z06PRC8ZMR2X,1459784367327,English,6,hot,bath,Q and not-Q,cold and not cold,stage,extremely cold,extremely hot,0.274236723759375,0.545,1,7994,8,0,"no comments
"
A2K1ESUAWL5M9:36PW28KO4041VDLIA98FD0BR5YMAE8,1459780501018,"english, vietnamese",1,long,movie,not-P ,not long,individual,extremely short,extremely long,0.5571439632073096,0.6,6,9152,8,5,
A2K1ESUAWL5M9:36PW28KO4041VDLIA98FD0BR5YMAE8,1459780521107,"english, vietnamese",2,full,band,P,full,stage,no one,sold out,0.41137208539216275,1.0,7,20087,8,5,
A2K1ESUAWL5M9:36PW28KO4041VDLIA98FD0BR5YMAE8,1459780533617,"english, vietnamese",3,expensive,laptop,P and not-P,expensive and not expensive,individual,almost nothing,an enormous amount,0.2902895149338096,0.258,1,12506,8,5,
A2K1ESUAWL5M9:36PW28KO4041VDLIA98FD0BR5YMAE8,1459780542545,"english, vietnamese",4,hot,bath,neither Q nor not-Q,neither cold nor not cold,stage,extremely cold,extremely hot,0.2086456095023006,0.501,5,8927,8,5,
A2K1ESUAWL5M9:36PW28KO4041VDLIA98FD0BR5YMAE8,1459780553289,"english, vietnamese",5,tall,US male,neither P nor Q,neither tall nor short,individual,extremely short,extremely tall,0.9376703136798366,0.495,6,10743,8,5,
A2K1ESUAWL5M9:36PW28KO4041VDLIA98FD0BR5YMAE8,1459780564507,"english, vietnamese",6,fast,car,neither P nor not-P,neither fast nor not fast,stage,extremely slow,extremely fast,0.4799981788400942,0.473,2,11217,8,5,
A3GZYWA9S6J0K9:36WLNQG780I6ENQAGN8B8BVXNG9EB9,1459787059173,English,1,fast,car,not-Q,not slow,stage,extremely slow,extremely fast,0.762374900735522,0.645,3,41505,7,2,
A3GZYWA9S6J0K9:36WLNQG780I6ENQAGN8B8BVXNG9EB9,1459787067444,English,2,expensive,laptop,P,expensive,individual,almost nothing,an enormous amount,0.34627057334247235,0.638,7,8268,7,2,
A3GZYWA9S6J0K9:36WLNQG780I6ENQAGN8B8BVXNG9EB9,1459787076902,English,3,hot,bath,not-P ,not hot,stage,extremely cold,extremely hot,0.14660258111690327,0.454,4,9457,7,2,
A3GZYWA9S6J0K9:36WLNQG780I6ENQAGN8B8BVXNG9EB9,1459787086501,English,4,long,movie,Q and not-Q,short and not short,individual,extremely short,extremely long,0.7085297857205914,0.298,2,9598,7,2,
A3GZYWA9S6J0K9:36WLNQG780I6ENQAGN8B8BVXNG9EB9,1459787126100,English,5,full,band,neither P nor not-P,neither full nor not full,stage,no one,sold out,0.14091932074452385,0.479,3,39597,7,2,
A3GZYWA9S6J0K9:36WLNQG780I6ENQAGN8B8BVXNG9EB9,1459787148944,English,6,tall,US male,neither P nor Q,neither tall nor short,individual,extremely short,extremely tall,0.5581611203529229,0.519,2,22838,7,2,
ALF9AAZGQP4K5:3XC1O3LBOTUKGFUJXVM0L0R32K9TL0,1459782720391,English,1,fast,car,not-P ,not fast,stage,extremely slow,extremely fast,0.4846614059060812,0.402,4,11311,9,0,No
ALF9AAZGQP4K5:3XC1O3LBOTUKGFUJXVM0L0R32K9TL0,1459782737216,English,2,full,band,not-Q,not empty,stage,no one,sold out,0.32574417092837393,0.336,3,16820,9,0,No
ALF9AAZGQP4K5:3XC1O3LBOTUKGFUJXVM0L0R32K9TL0,1459782750044,English,3,hot,bath,neither P nor not-P,neither hot nor not hot,stage,extremely cold,extremely hot,0.796439315425232,0.506,3,12825,9,0,No
ALF9AAZGQP4K5:3XC1O3LBOTUKGFUJXVM0L0R32K9TL0,1459782766477,English,4,expensive,laptop,P and not-P,expensive and not expensive,individual,almost nothing,an enormous amount,0.3018933169078082,0.529,2,16430,9,0,No
ALF9AAZGQP4K5:3XC1O3LBOTUKGFUJXVM0L0R32K9TL0,1459782777007,English,5,tall,US male,Q and not-Q,short and not short,individual,extremely short,extremely tall,0.6477892741095275,0.445,2,10526,9,0,No
ALF9AAZGQP4K5:3XC1O3LBOTUKGFUJXVM0L0R32K9TL0,1459782788649,English,6,long,movie,neither Q nor not-Q,neither short nor not short,individual,extremely short,extremely long,0.8999733829405159,0.501,4,11638,9,0,No
A3D3NEQ158WUB0:3GDTJDAPVVJLODKGU9CKUHA5OCCM84,1459781348724,English,1,long,movie,neither Q nor not-Q,neither short nor not short,individual,extremely short,extremely long,0.2948719083843059,0.512,3,19043,4,0,
A3D3NEQ158WUB0:3GDTJDAPVVJLODKGU9CKUHA5OCCM84,1459781359111,English,2,fast,car,P and not-P,fast and not fast,stage,extremely slow,extremely fast,0.5373598024875983,0.529,2,10387,4,0,
A3D3NEQ158WUB0:3GDTJDAPVVJLODKGU9CKUHA5OCCM84,1459781375429,English,3,full,band,neither P nor Q,neither full nor empty,stage,no one,sold out,0.1080352747769302,0.663,6,16318,4,0,
A3D3NEQ158WUB0:3GDTJDAPVVJLODKGU9CKUHA5OCCM84,1459781380933,English,4,tall,US male,Q and not-Q,short and not short,individual,extremely short,extremely tall,0.3235807891683231,0.543,1,5504,4,0,
A3D3NEQ158WUB0:3GDTJDAPVVJLODKGU9CKUHA5OCCM84,1459781391862,English,5,hot,bath,not-Q,not cold,stage,extremely cold,extremely hot,0.5374510882264532,0.842,7,10927,4,0,
A3D3NEQ158WUB0:3GDTJDAPVVJLODKGU9CKUHA5OCCM84,1459781398917,English,6,expensive,laptop,P,expensive,individual,almost nothing,an enormous amount,0.8551110714012142,0.903,7,7055,4,0,
A2JRONMDBUJT3K:3LOZAJ85YELLWAHVSZ5SV7D09G72X4,1459783567197,English,1,fast,car,Q,slow,stage,extremely slow,extremely fast,0.0006750940308881681,0.301,6,5434,4,0,
A2JRONMDBUJT3K:3LOZAJ85YELLWAHVSZ5SV7D09G72X4,1459783572830,English,2,long,movie,P and not-P,long and not long,individual,extremely short,extremely long,0.7602649043882719,0.377,1,5633,4,0,
A2JRONMDBUJT3K:3LOZAJ85YELLWAHVSZ5SV7D09G72X4,1459783578546,English,3,tall,US male,neither P nor not-P,neither tall nor not tall,individual,extremely short,extremely tall,0.6566700402313554,0.206,1,5716,4,0,
A2JRONMDBUJT3K:3LOZAJ85YELLWAHVSZ5SV7D09G72X4,1459783584681,English,4,hot,bath,neither P nor Q,neither hot nor cold,stage,extremely cold,extremely hot,0.13877043034991843,0.454,7,6135,4,0,
A2JRONMDBUJT3K:3LOZAJ85YELLWAHVSZ5SV7D09G72X4,1459783589449,English,5,expensive,laptop,neither Q nor not-Q,neither cheap nor not cheap,individual,almost nothing,an enormous amount,0.17462796792457191,0.464,1,4768,4,0,
A2JRONMDBUJT3K:3LOZAJ85YELLWAHVSZ5SV7D09G72X4,1459783593232,English,6,full,band,Q and not-Q,empty and not empty,stage,no one,sold out,0.7671598324849522,0.513,2,3781,4,0,
A36KDWI1CGJFFA:3NAPMVF0ZXNRHVB4AM1U180C7NQ277,1459782201257,English,1,tall,US male,neither P nor not-P,neither tall nor not tall,individual,extremely short,extremely tall,0.382459320763447,0.505,1,27497,4,0,It is taking a while to submit.
A36KDWI1CGJFFA:3NAPMVF0ZXNRHVB4AM1U180C7NQ277,1459782219479,English,2,expensive,laptop,neither P nor Q,neither expensive nor cheap,individual,almost nothing,an enormous amount,0.6456788788045379,0.476,6,18219,4,0,It is taking a while to submit.
A36KDWI1CGJFFA:3NAPMVF0ZXNRHVB4AM1U180C7NQ277,1459782231446,English,3,long,movie,not-Q,not short,individual,extremely short,extremely long,0.43412502267366737,0.507,2,11964,4,0,It is taking a while to submit.
A36KDWI1CGJFFA:3NAPMVF0ZXNRHVB4AM1U180C7NQ277,1459782242380,English,4,fast,car,P and not-P,fast and not fast,stage,extremely slow,extremely fast,0.763341792024668,0.504,1,10932,4,0,It is taking a while to submit.
A36KDWI1CGJFFA:3NAPMVF0ZXNRHVB4AM1U180C7NQ277,1459782258141,English,5,full,band,Q,empty,stage,no one,sold out,0.959168591268622,0.021,6,15760,4,0,It is taking a while to submit.
A36KDWI1CGJFFA:3NAPMVF0ZXNRHVB4AM1U180C7NQ277,1459782270333,English,6,hot,bath,not-P ,not hot,stage,extremely cold,extremely hot,0.13915844447941295,0.618,6,12190,4,0,It is taking a while to submit.
A29ZJBKY6UG4B8:32EYX73OY1HAJQ4L2K96C8M4RTNRU3,1459852554479,English,1,long,movie,neither Q nor not-Q,neither short nor not short,individual,extremely short,extremely long,0.6827969762618573,0.291,1,20572,4,0,It is taking a while to submit.
A29ZJBKY6UG4B8:32EYX73OY1HAJQ4L2K96C8M4RTNRU3,1459852573087,English,2,hot,bath,Q,cold,stage,extremely cold,extremely hot,0.11991402765082282,0.24,7,18600,4,0,It is taking a while to submit.
A29ZJBKY6UG4B8:32EYX73OY1HAJQ4L2K96C8M4RTNRU3,1459852587813,English,3,fast,car,P and not-P,fast and not fast,stage,extremely slow,extremely fast,0.9963996324581514,0.521,2,14721,4,0,It is taking a while to submit.
A29ZJBKY6UG4B8:32EYX73OY1HAJQ4L2K96C8M4RTNRU3,1459852601944,English,4,tall,US male,P,tall,individual,extremely short,extremely tall,0.10500039891726054,0.716,7,14126,4,0,It is taking a while to submit.
A29ZJBKY6UG4B8:32EYX73OY1HAJQ4L2K96C8M4RTNRU3,1459852624460,English,5,full,band,neither P nor not-P,neither full nor not full,stage,no one,sold out,0.18530715423518695,0.52,2,22511,4,0,It is taking a while to submit.
A29ZJBKY6UG4B8:32EYX73OY1HAJQ4L2K96C8M4RTNRU3,1459852639608,English,6,expensive,laptop,Q and not-Q,cheap and not cheap,individual,almost nothing,an enormous amount,0.27343429150568865,0.532,2,15144,4,0,It is taking a while to submit.
AP9QPMZF13N0I:3IAS3U3I0GOEJ7EUN3DA6AM8QDH2BT,1459780363313,English,1,fast,car,neither P nor not-P,neither fast nor not fast,stage,extremely slow,extremely fast,0.7717333344786441,0.487,1,13021,4,0,It is taking a while to submit.
AP9QPMZF13N0I:3IAS3U3I0GOEJ7EUN3DA6AM8QDH2BT,1459780372728,English,2,expensive,laptop,P and not-P,expensive and not expensive,individual,almost nothing,an enormous amount,0.6618209759561677,0.498,1,9414,4,0,It is taking a while to submit.
AP9QPMZF13N0I:3IAS3U3I0GOEJ7EUN3DA6AM8QDH2BT,1459780387936,English,3,full,band,P,full,stage,no one,sold out,0.0831321833590355,1.0,7,15208,4,0,It is taking a while to submit.
AP9QPMZF13N0I:3IAS3U3I0GOEJ7EUN3DA6AM8QDH2BT,1459780397696,English,4,tall,US male,not-P ,not tall,individual,extremely short,extremely tall,0.19715297266802945,0.223,6,9760,4,0,It is taking a while to submit.
AP9QPMZF13N0I:3IAS3U3I0GOEJ7EUN3DA6AM8QDH2BT,1459780403751,English,5,long,movie,neither Q nor not-Q,neither short nor not short,individual,extremely short,extremely long,0.40318276908237793,0.516,1,6055,4,0,It is taking a while to submit.
AP9QPMZF13N0I:3IAS3U3I0GOEJ7EUN3DA6AM8QDH2BT,1459780411560,English,6,hot,bath,Q,cold,stage,extremely cold,extremely hot,0.20358741987929374,0.228,6,7808,4,0,It is taking a while to submit.
AVKPS1AK77IXI:3EICBYG6454XZ8488OFXGBE7ACPCJP,1459860363115,English,1,tall,US male,not-Q,not short,individual,extremely short,extremely tall,0.860389181003421,0.735,3,12038,4,0,It is taking a while to submit.
AVKPS1AK77IXI:3EICBYG6454XZ8488OFXGBE7ACPCJP,1459860375717,English,2,fast,car,neither P nor Q,neither fast nor slow,stage,extremely slow,extremely fast,0.40900279152021246,0.493,3,12594,4,0,It is taking a while to submit.
AVKPS1AK77IXI:3EICBYG6454XZ8488OFXGBE7ACPCJP,1459860389898,English,3,hot,bath,Q and not-Q,cold and not cold,stage,extremely cold,extremely hot,0.23216801293617018,0.453,3,14174,4,0,It is taking a while to submit.
AVKPS1AK77IXI:3EICBYG6454XZ8488OFXGBE7ACPCJP,1459860404602,English,4,full,band,P and not-P,full and not full,stage,no one,sold out,0.7677391014109552,0.483,2,14700,4,0,It is taking a while to submit.
AVKPS1AK77IXI:3EICBYG6454XZ8488OFXGBE7ACPCJP,1459860417936,English,5,expensive,laptop,Q,cheap,individual,almost nothing,an enormous amount,0.9765566870341317,0.249,7,13328,4,0,It is taking a while to submit.
AVKPS1AK77IXI:3EICBYG6454XZ8488OFXGBE7ACPCJP,1459860427551,English,6,long,movie,neither Q nor not-Q,neither short nor not short,individual,extremely short,extremely long,0.812123383270221,0.475,3,9600,4,0,It is taking a while to submit.
A5TI9UQEPLNWI:3FDJT1UU75G7B71BBZS13K8AXHJK5Y,1459784391934,english,1,fast,car,P and not-P,fast and not fast,stage,extremely slow,extremely fast,0.9070775091434395,0.487,2,16382,8,2,all good.
A5TI9UQEPLNWI:3FDJT1UU75G7B71BBZS13K8AXHJK5Y,1459784401193,english,2,tall,US male,P,tall,individual,extremely short,extremely tall,0.40184206009808765,0.74,7,9258,8,2,all good.
A5TI9UQEPLNWI:3FDJT1UU75G7B71BBZS13K8AXHJK5Y,1459784418337,english,3,expensive,laptop,Q and not-Q,cheap and not cheap,individual,almost nothing,an enormous amount,0.1316383532605223,0.38,1,17144,8,2,all good.
A5TI9UQEPLNWI:3FDJT1UU75G7B71BBZS13K8AXHJK5Y,1459784435218,english,4,long,movie,not-P ,not long,individual,extremely short,extremely long,0.2748965240947452,0.365,6,16880,8,2,all good.
A5TI9UQEPLNWI:3FDJT1UU75G7B71BBZS13K8AXHJK5Y,1459784452973,english,5,full,band,neither Q nor not-Q,neither empty nor not empty,stage,no one,sold out,0.6982980251032602,0.389,1,17754,8,2,all good.
A5TI9UQEPLNWI:3FDJT1UU75G7B71BBZS13K8AXHJK5Y,1459784475705,english,6,hot,bath,not-Q,not cold,stage,extremely cold,extremely hot,0.6070589300348657,0.371,6,22730,8,2,all good.
ASV53ZC7ILJ7B:39DD6S19JQJ2WLTQM1OEUT20EKOZEV,1459796791927,English,1,tall,US male,Q,short,individual,extremely short,extremely tall,0.3503971872172973,0.29,5,12362,4,7,No
ASV53ZC7ILJ7B:39DD6S19JQJ2WLTQM1OEUT20EKOZEV,1459796808399,English,2,full,band,not-P ,not full,stage,no one,sold out,0.6667524262066153,0.569,5,16471,4,7,No
ASV53ZC7ILJ7B:39DD6S19JQJ2WLTQM1OEUT20EKOZEV,1459796824445,English,3,fast,car,Q and not-Q,slow and not slow,stage,extremely slow,extremely fast,0.93621050631133,0.534,1,16045,4,7,No
ASV53ZC7ILJ7B:39DD6S19JQJ2WLTQM1OEUT20EKOZEV,1459796835967,English,4,expensive,laptop,P,expensive,individual,almost nothing,an enormous amount,0.5544463086346965,0.949,6,11521,4,7,No
ASV53ZC7ILJ7B:39DD6S19JQJ2WLTQM1OEUT20EKOZEV,1459796849299,English,5,hot,bath,neither P nor not-P,neither hot nor not hot,stage,extremely cold,extremely hot,0.8261458797122667,0.502,1,13331,4,7,No
ASV53ZC7ILJ7B:39DD6S19JQJ2WLTQM1OEUT20EKOZEV,1459796857615,English,6,long,movie,not-Q,not short,individual,extremely short,extremely long,0.0026306252639756167,0.897,7,8314,4,7,No
ATOV0H5KQHI29:3R5F3LQFV3SO8C6FGFRAZ5WEIMRZOW,1459792176799,English,1,tall,US male,P,tall,individual,extremely short,extremely tall,0.1744021125439832,0.543,7,15556,6,3,Nope :)
ATOV0H5KQHI29:3R5F3LQFV3SO8C6FGFRAZ5WEIMRZOW,1459792189725,English,2,fast,car,neither Q nor not-Q,neither slow nor not slow,stage,extremely slow,extremely fast,0.6867449587748,0.52,3,12924,6,3,Nope :)
ATOV0H5KQHI29:3R5F3LQFV3SO8C6FGFRAZ5WEIMRZOW,1459792203451,English,3,expensive,laptop,not-P ,not expensive,individual,almost nothing,an enormous amount,0.41957891028907435,0.267,7,13725,6,3,Nope :)
ATOV0H5KQHI29:3R5F3LQFV3SO8C6FGFRAZ5WEIMRZOW,1459792220373,English,4,full,band,Q,empty,stage,no one,sold out,0.49063176518556517,0.0,7,16920,6,3,Nope :)
ATOV0H5KQHI29:3R5F3LQFV3SO8C6FGFRAZ5WEIMRZOW,1459792233919,English,5,hot,bath,not-Q,not cold,stage,extremely cold,extremely hot,0.07224203286788633,0.664,7,13540,6,3,Nope :)
ATOV0H5KQHI29:3R5F3LQFV3SO8C6FGFRAZ5WEIMRZOW,1459792247168,English,6,long,movie,neither P nor Q,neither long nor short,individual,extremely short,extremely long,0.8909780916015584,0.487,7,13246,6,3,Nope :)
A1TARNH07A75CG:3YGXWBAF71P7WQLN5HSTA9POSD44CR,1459791220830,English,1,fast,car,Q and not-Q,slow and not slow,stage,extremely slow,extremely fast,0.6092676476946177,0.253,1,13409,5,5,
A1TARNH07A75CG:3YGXWBAF71P7WQLN5HSTA9POSD44CR,1459791230113,English,2,long,movie,neither P nor not-P,neither long nor not long,individual,extremely short,extremely long,0.9439487816812508,0.747,7,9278,5,5,
A1TARNH07A75CG:3YGXWBAF71P7WQLN5HSTA9POSD44CR,1459791238934,English,3,hot,bath,neither P nor Q,neither hot nor cold,stage,extremely cold,extremely hot,0.9148418845119324,0.521,7,8818,5,5,
A1TARNH07A75CG:3YGXWBAF71P7WQLN5HSTA9POSD44CR,1459791245645,English,4,full,band,not-P ,not full,stage,no one,sold out,0.6660745598930735,0.488,4,6710,5,5,
A1TARNH07A75CG:3YGXWBAF71P7WQLN5HSTA9POSD44CR,1459791251977,English,5,expensive,laptop,neither Q nor not-Q,neither cheap nor not cheap,individual,almost nothing,an enormous amount,0.6824293584145689,0.491,4,6331,5,5,
A1TARNH07A75CG:3YGXWBAF71P7WQLN5HSTA9POSD44CR,1459791259537,English,6,tall,US male,P,tall,individual,extremely short,extremely tall,0.11950605044489682,0.77,7,7556,5,5,
A19I1KU0HG8JG3:3A4NIXBJ777G3K4ZOYLOZMWB8DTMLA,1459789409195,english,1,long,movie,not-Q,not short,individual,extremely short,extremely long,0.700949494691774,0.787,7,14583,10,0,enjoyed the study i thought was mentally engaging i liked it alot thank you for the opportunity to participate 
A19I1KU0HG8JG3:3A4NIXBJ777G3K4ZOYLOZMWB8DTMLA,1459789426231,english,2,fast,car,P,fast,stage,extremely slow,extremely fast,0.16525934407209664,0.767,5,17032,10,0,enjoyed the study i thought was mentally engaging i liked it alot thank you for the opportunity to participate 
A19I1KU0HG8JG3:3A4NIXBJ777G3K4ZOYLOZMWB8DTMLA,1459789442250,english,3,expensive,laptop,neither P nor Q,neither expensive nor cheap,individual,almost nothing,an enormous amount,0.9979794848976158,0.487,6,16017,10,0,enjoyed the study i thought was mentally engaging i liked it alot thank you for the opportunity to participate 
A19I1KU0HG8JG3:3A4NIXBJ777G3K4ZOYLOZMWB8DTMLA,1459789452006,english,4,hot,bath,neither Q nor not-Q,neither cold nor not cold,stage,extremely cold,extremely hot,0.9977930093389502,0.498,2,9754,10,0,enjoyed the study i thought was mentally engaging i liked it alot thank you for the opportunity to participate 
A19I1KU0HG8JG3:3A4NIXBJ777G3K4ZOYLOZMWB8DTMLA,1459789467181,english,5,full,band,not-P ,not full,stage,no one,sold out,0.3030544792933034,0.246,5,15172,10,0,enjoyed the study i thought was mentally engaging i liked it alot thank you for the opportunity to participate 
A19I1KU0HG8JG3:3A4NIXBJ777G3K4ZOYLOZMWB8DTMLA,1459789476304,english,6,tall,US male,neither P nor not-P,neither tall nor not tall,individual,extremely short,extremely tall,0.7573310715705734,0.521,2,9121,10,0,enjoyed the study i thought was mentally engaging i liked it alot thank you for the opportunity to participate 
A1U8HCXVACOGJ8:34BBWHLWHBJAIVQ77XUYG46APAYIW2,1459783676373,english,1,fast,car,not-Q,not slow,stage,extremely slow,extremely fast,0.03268221074642186,0.649,5,12525,10,0,enjoyed the study i thought was mentally engaging i liked it alot thank you for the opportunity to participate 
A1U8HCXVACOGJ8:34BBWHLWHBJAIVQ77XUYG46APAYIW2,1459783695494,english,2,hot,bath,neither P nor Q,neither hot nor cold,stage,extremely cold,extremely hot,0.906186779403252,0.513,6,19116,10,0,enjoyed the study i thought was mentally engaging i liked it alot thank you for the opportunity to participate 
A1U8HCXVACOGJ8:34BBWHLWHBJAIVQ77XUYG46APAYIW2,1459783709049,english,3,full,band,P,full,stage,no one,sold out,0.6010940611444346,1.0,7,13549,10,0,enjoyed the study i thought was mentally engaging i liked it alot thank you for the opportunity to participate 
A1U8HCXVACOGJ8:34BBWHLWHBJAIVQ77XUYG46APAYIW2,1459783720535,english,4,tall,US male,neither P nor not-P,neither tall nor not tall,individual,extremely short,extremely tall,0.4510119636677693,0.511,4,11482,10,0,enjoyed the study i thought was mentally engaging i liked it alot thank you for the opportunity to participate 
A1U8HCXVACOGJ8:34BBWHLWHBJAIVQ77XUYG46APAYIW2,1459783730910,english,5,expensive,laptop,Q and not-Q,cheap and not cheap,individual,almost nothing,an enormous amount,0.43091190346925845,0.414,5,10369,10,0,enjoyed the study i thought was mentally engaging i liked it alot thank you for the opportunity to participate 
A1U8HCXVACOGJ8:34BBWHLWHBJAIVQ77XUYG46APAYIW2,1459783742327,english,6,long,movie,not-P ,not long,individual,extremely short,extremely long,0.5213318805179183,0.504,5,11412,10,0,enjoyed the study i thought was mentally engaging i liked it alot thank you for the opportunity to participate 
AOPOLVUSCIRDN:3AQF3RZ559QSEP9BF7B9FDU5LIQF6O,1459801905419,english,1,long,movie,P,long,individual,extremely short,extremely long,0.17675910512597404,0.575,6,32039,10,0,enjoyed the study i thought was mentally engaging i liked it alot thank you for the opportunity to participate 
AOPOLVUSCIRDN:3AQF3RZ559QSEP9BF7B9FDU5LIQF6O,1459801927250,english,2,hot,bath,not-P ,not hot,stage,extremely cold,extremely hot,0.013746665796654511,0.387,5,21829,10,0,enjoyed the study i thought was mentally engaging i liked it alot thank you for the opportunity to participate 
AOPOLVUSCIRDN:3AQF3RZ559QSEP9BF7B9FDU5LIQF6O,1459801951632,english,3,tall,US male,neither P nor not-P,neither tall nor not tall,individual,extremely short,extremely tall,0.9341906006037883,0.525,4,24381,10,0,enjoyed the study i thought was mentally engaging i liked it alot thank you for the opportunity to participate 
AOPOLVUSCIRDN:3AQF3RZ559QSEP9BF7B9FDU5LIQF6O,1459801977526,english,4,full,band,Q,empty,stage,no one,sold out,0.6372519199271416,0.0,5,25892,10,0,enjoyed the study i thought was mentally engaging i liked it alot thank you for the opportunity to participate 
AOPOLVUSCIRDN:3AQF3RZ559QSEP9BF7B9FDU5LIQF6O,1459802003320,english,5,fast,car,neither P nor Q,neither fast nor slow,stage,extremely slow,extremely fast,0.4354389513049113,0.519,6,25792,10,0,enjoyed the study i thought was mentally engaging i liked it alot thank you for the opportunity to participate 
AOPOLVUSCIRDN:3AQF3RZ559QSEP9BF7B9FDU5LIQF6O,1459802019638,english,6,expensive,laptop,Q and not-Q,cheap and not cheap,individual,almost nothing,an enormous amount,0.2624955617610656,0.527,1,16316,10,0,enjoyed the study i thought was mentally engaging i liked it alot thank you for the opportunity to participate 
A3KNSTTC20KYLQ:3XLBSAQ9Z5KHN6EGZTA8OJAJSXO7ZL,1459794796992,english,1,hot,bath,neither P nor Q,neither hot nor cold,stage,extremely cold,extremely hot,0.1602748993318528,0.487,7,9113,10,0,enjoyed the study i thought was mentally engaging i liked it alot thank you for the opportunity to participate 
A3KNSTTC20KYLQ:3XLBSAQ9Z5KHN6EGZTA8OJAJSXO7ZL,1459794808935,english,2,fast,car,not-Q,not slow,stage,extremely slow,extremely fast,0.574213040759787,0.661,5,11942,10,0,enjoyed the study i thought was mentally engaging i liked it alot thank you for the opportunity to participate 
A3KNSTTC20KYLQ:3XLBSAQ9Z5KHN6EGZTA8OJAJSXO7ZL,1459794828150,english,3,tall,US male,neither Q nor not-Q,neither short nor not short,individual,extremely short,extremely tall,0.998469018843025,0.513,2,19214,10,0,enjoyed the study i thought was mentally engaging i liked it alot thank you for the opportunity to participate 
A3KNSTTC20KYLQ:3XLBSAQ9Z5KHN6EGZTA8OJAJSXO7ZL,1459794840942,english,4,long,movie,P and not-P,long and not long,individual,extremely short,extremely long,0.03672417439520359,0.496,2,12790,10,0,enjoyed the study i thought was mentally engaging i liked it alot thank you for the opportunity to participate 
A3KNSTTC20KYLQ:3XLBSAQ9Z5KHN6EGZTA8OJAJSXO7ZL,1459794857837,english,5,full,band,Q and not-Q,empty and not empty,stage,no one,sold out,0.16330794128589332,0.23,2,16894,10,0,enjoyed the study i thought was mentally engaging i liked it alot thank you for the opportunity to participate 
A3KNSTTC20KYLQ:3XLBSAQ9Z5KHN6EGZTA8OJAJSXO7ZL,1459794868653,english,6,expensive,laptop,P,expensive,individual,almost nothing,an enormous amount,0.1203647623769939,0.738,6,10815,10,0,enjoyed the study i thought was mentally engaging i liked it alot thank you for the opportunity to participate 
AZWNKDPOHO240:3WLEIWSYHPPOAKHGNVN6SLP6LQN2HA,1459781841220,english,1,expensive,laptop,Q,cheap,individual,almost nothing,an enormous amount,0.5953635818485472,0.322,7,11962,10,0,enjoyed the study i thought was mentally engaging i liked it alot thank you for the opportunity to participate 
AZWNKDPOHO240:3WLEIWSYHPPOAKHGNVN6SLP6LQN2HA,1459781850235,english,2,long,movie,not-Q,not short,individual,extremely short,extremely long,0.3874967068061528,0.579,3,9013,10,0,enjoyed the study i thought was mentally engaging i liked it alot thank you for the opportunity to participate 
AZWNKDPOHO240:3WLEIWSYHPPOAKHGNVN6SLP6LQN2HA,1459781858838,english,3,hot,bath,P and not-P,hot and not hot,stage,extremely cold,extremely hot,0.8962062921579927,0.521,2,8600,10,0,enjoyed the study i thought was mentally engaging i liked it alot thank you for the opportunity to participate 
AZWNKDPOHO240:3WLEIWSYHPPOAKHGNVN6SLP6LQN2HA,1459781868347,english,4,tall,US male,not-P ,not tall,individual,extremely short,extremely tall,0.3261032730729778,0.416,4,9508,10,0,enjoyed the study i thought was mentally engaging i liked it alot thank you for the opportunity to participate 
AZWNKDPOHO240:3WLEIWSYHPPOAKHGNVN6SLP6LQN2HA,1459781879714,english,5,full,band,Q and not-Q,empty and not empty,stage,no one,sold out,0.19084113869854313,0.492,1,11364,10,0,enjoyed the study i thought was mentally engaging i liked it alot thank you for the opportunity to participate 
AZWNKDPOHO240:3WLEIWSYHPPOAKHGNVN6SLP6LQN2HA,1459781886798,english,6,fast,car,P,fast,stage,extremely slow,extremely fast,0.3837665937103898,0.668,7,7084,10,0,enjoyed the study i thought was mentally engaging i liked it alot thank you for the opportunity to participate 
A1XNVHBT1JTHQ:3TK8OJTYM2TPKSD6UIFM3ZO84GPVPH,1459795979266,english,1,hot,bath,P,hot,stage,extremely cold,extremely hot,0.3507948381659163,0.773,4,19945,10,0,enjoyed the study i thought was mentally engaging i liked it alot thank you for the opportunity to participate 
A1XNVHBT1JTHQ:3TK8OJTYM2TPKSD6UIFM3ZO84GPVPH,1459795998274,english,2,fast,car,not-P ,not fast,stage,extremely slow,extremely fast,0.46732099962821994,0.203,2,19006,10,0,enjoyed the study i thought was mentally engaging i liked it alot thank you for the opportunity to participate 
A1XNVHBT1JTHQ:3TK8OJTYM2TPKSD6UIFM3ZO84GPVPH,1459796072716,english,3,long,movie,neither P nor Q,neither long nor short,individual,extremely short,extremely long,0.7756751025267299,0.522,1,74439,10,0,enjoyed the study i thought was mentally engaging i liked it alot thank you for the opportunity to participate 
A1XNVHBT1JTHQ:3TK8OJTYM2TPKSD6UIFM3ZO84GPVPH,1459796081495,english,4,expensive,laptop,not-Q,not cheap,individual,almost nothing,an enormous amount,0.09432491721141978,0.81,6,8776,10,0,enjoyed the study i thought was mentally engaging i liked it alot thank you for the opportunity to participate 
A1XNVHBT1JTHQ:3TK8OJTYM2TPKSD6UIFM3ZO84GPVPH,1459796106764,english,5,full,band,Q,empty,stage,no one,sold out,0.6967201040167117,0.0,3,25266,10,0,enjoyed the study i thought was mentally engaging i liked it alot thank you for the opportunity to participate 
A1XNVHBT1JTHQ:3TK8OJTYM2TPKSD6UIFM3ZO84GPVPH,1459796118869,english,6,tall,US male,neither P nor not-P,neither tall nor not tall,individual,extremely short,extremely tall,0.3588734360175818,0.496,1,12101,10,0,enjoyed the study i thought was mentally engaging i liked it alot thank you for the opportunity to participate 
A2WYCY1FMQOD5F:33NF62TLXKAFI6GW01WV4URFFIEKJK,1459784679552,english,1,long,movie,neither P nor not-P,neither long nor not long,individual,extremely short,extremely long,0.053255601337472314,0.743,6,4543,10,0,enjoyed the study i thought was mentally engaging i liked it alot thank you for the opportunity to participate 
A2WYCY1FMQOD5F:33NF62TLXKAFI6GW01WV4URFFIEKJK,1459784685271,english,2,full,band,P,full,stage,no one,sold out,0.36658955752212474,0.567,4,5717,10,0,enjoyed the study i thought was mentally engaging i liked it alot thank you for the opportunity to participate 
A2WYCY1FMQOD5F:33NF62TLXKAFI6GW01WV4URFFIEKJK,1459784689647,english,3,expensive,laptop,P and not-P,expensive and not expensive,individual,almost nothing,an enormous amount,0.6906984454799809,0.38,3,4375,10,0,enjoyed the study i thought was mentally engaging i liked it alot thank you for the opportunity to participate 
A2WYCY1FMQOD5F:33NF62TLXKAFI6GW01WV4URFFIEKJK,1459784694183,english,4,hot,bath,neither P nor Q,neither hot nor cold,stage,extremely cold,extremely hot,0.469320450528496,0.556,3,4534,10,0,enjoyed the study i thought was mentally engaging i liked it alot thank you for the opportunity to participate 
A2WYCY1FMQOD5F:33NF62TLXKAFI6GW01WV4URFFIEKJK,1459784697638,english,5,fast,car,Q,slow,stage,extremely slow,extremely fast,0.2846061208650339,0.542,5,3454,10,0,enjoyed the study i thought was mentally engaging i liked it alot thank you for the opportunity to participate 
A2WYCY1FMQOD5F:33NF62TLXKAFI6GW01WV4URFFIEKJK,1459784701150,english,6,tall,US male,not-Q,not short,individual,extremely short,extremely tall,0.09873791945683696,0.44,5,3510,10,0,enjoyed the study i thought was mentally engaging i liked it alot thank you for the opportunity to participate 
A1YZGNNPWZDPHS:3TXD01ZLD5P3IK2NR8DT4FBUZF64U0,1459861117907,english,1,tall,US male,not-P ,not tall,individual,extremely short,extremely tall,0.9530757502546412,0.515,2,10975,10,0,enjoyed the study i thought was mentally engaging i liked it alot thank you for the opportunity to participate 
A1YZGNNPWZDPHS:3TXD01ZLD5P3IK2NR8DT4FBUZF64U0,1459861125650,english,2,hot,bath,P and not-P,hot and not hot,stage,extremely cold,extremely hot,0.9047367686435845,0.526,1,7742,10,0,enjoyed the study i thought was mentally engaging i liked it alot thank you for the opportunity to participate 
A1YZGNNPWZDPHS:3TXD01ZLD5P3IK2NR8DT4FBUZF64U0,1459861135868,english,3,full,band,not-Q,not empty,stage,no one,sold out,0.08578754092212715,0.52,5,10217,10,0,enjoyed the study i thought was mentally engaging i liked it alot thank you for the opportunity to participate 
A1YZGNNPWZDPHS:3TXD01ZLD5P3IK2NR8DT4FBUZF64U0,1459861144565,english,4,expensive,laptop,Q,cheap,individual,almost nothing,an enormous amount,0.7127979997249876,0.174,7,8696,10,0,enjoyed the study i thought was mentally engaging i liked it alot thank you for the opportunity to participate 
A1YZGNNPWZDPHS:3TXD01ZLD5P3IK2NR8DT4FBUZF64U0,1459861151300,english,5,long,movie,neither Q nor not-Q,neither short nor not short,individual,extremely short,extremely long,0.6006391061648395,0.495,1,6734,10,0,enjoyed the study i thought was mentally engaging i liked it alot thank you for the opportunity to participate 
A1YZGNNPWZDPHS:3TXD01ZLD5P3IK2NR8DT4FBUZF64U0,1459861158357,english,6,fast,car,neither P nor Q,neither fast nor slow,stage,extremely slow,extremely fast,0.9166199979275398,0.522,6,7056,10,0,enjoyed the study i thought was mentally engaging i liked it alot thank you for the opportunity to participate 
A1U8RH67FLZW87:33PPUNGG39DR5PYV878ET01JT9NZRH,1459798153892,english,1,long,movie,Q,short,individual,extremely short,extremely long,0.2343337729324655,0.235,5,28328,10,0,enjoyed the study i thought was mentally engaging i liked it alot thank you for the opportunity to participate 
A1U8RH67FLZW87:33PPUNGG39DR5PYV878ET01JT9NZRH,1459798179406,english,2,tall,US male,not-Q,not short,individual,extremely short,extremely tall,0.6057614548460319,0.584,3,25513,10,0,enjoyed the study i thought was mentally engaging i liked it alot thank you for the opportunity to participate 
A1U8RH67FLZW87:33PPUNGG39DR5PYV878ET01JT9NZRH,1459798199834,english,3,hot,bath,P,hot,stage,extremely cold,extremely hot,0.9416174834527502,0.846,7,20426,10,0,enjoyed the study i thought was mentally engaging i liked it alot thank you for the opportunity to participate 
A1U8RH67FLZW87:33PPUNGG39DR5PYV878ET01JT9NZRH,1459798213679,english,4,expensive,laptop,neither P nor Q,neither expensive nor cheap,individual,almost nothing,an enormous amount,0.9985337681307913,0.473,4,13843,10,0,enjoyed the study i thought was mentally engaging i liked it alot thank you for the opportunity to participate 
A1U8RH67FLZW87:33PPUNGG39DR5PYV878ET01JT9NZRH,1459798244303,english,5,full,band,not-P ,not full,stage,no one,sold out,0.0912238744385192,0.546,5,30622,10,0,enjoyed the study i thought was mentally engaging i liked it alot thank you for the opportunity to participate 
A1U8RH67FLZW87:33PPUNGG39DR5PYV878ET01JT9NZRH,1459798279486,english,6,fast,car,Q and not-Q,slow and not slow,stage,extremely slow,extremely fast,0.7287401943346639,0.486,1,35182,10,0,enjoyed the study i thought was mentally engaging i liked it alot thank you for the opportunity to participate 
A3SCEZTWZYV3BC:32N49TQG3HQIXO745ZXPD4ZD5UEVAQ,1459793271979,english,1,full,band,P,full,stage,no one,sold out,0.5105232082142976,0.772,6,9584,10,0,enjoyed the study i thought was mentally engaging i liked it alot thank you for the opportunity to participate 
A3SCEZTWZYV3BC:32N49TQG3HQIXO745ZXPD4ZD5UEVAQ,1459793283478,english,2,expensive,laptop,Q,cheap,individual,almost nothing,an enormous amount,0.9672126926517262,0.364,6,11497,10,0,enjoyed the study i thought was mentally engaging i liked it alot thank you for the opportunity to participate 
A3SCEZTWZYV3BC:32N49TQG3HQIXO745ZXPD4ZD5UEVAQ,1459793290023,english,3,tall,US male,not-P ,not tall,individual,extremely short,extremely tall,0.5124345009009106,0.387,5,6541,10,0,enjoyed the study i thought was mentally engaging i liked it alot thank you for the opportunity to participate 
A3SCEZTWZYV3BC:32N49TQG3HQIXO745ZXPD4ZD5UEVAQ,1459793298780,english,4,fast,car,not-Q,not slow,stage,extremely slow,extremely fast,0.39922308466023937,0.618,3,8754,10,0,enjoyed the study i thought was mentally engaging i liked it alot thank you for the opportunity to participate 
A3SCEZTWZYV3BC:32N49TQG3HQIXO745ZXPD4ZD5UEVAQ,1459793305356,english,5,long,movie,Q and not-Q,short and not short,individual,extremely short,extremely long,0.026687243724629717,0.491,1,6572,10,0,enjoyed the study i thought was mentally engaging i liked it alot thank you for the opportunity to participate 
A3SCEZTWZYV3BC:32N49TQG3HQIXO745ZXPD4ZD5UEVAQ,1459793308908,english,6,hot,bath,P and not-P,hot and not hot,stage,extremely cold,extremely hot,0.8211661195229809,0.506,1,3549,10,0,enjoyed the study i thought was mentally engaging i liked it alot thank you for the opportunity to participate 
A3A28RJ83OIL3D:3WI0P0II620O2OTZGPJH28IG5TTDRG,1459859216433,english,1,full,band,Q,empty,stage,no one,sold out,0.02975448753895904,0.037,4,27601,10,0,enjoyed the study i thought was mentally engaging i liked it alot thank you for the opportunity to participate 
A3A28RJ83OIL3D:3WI0P0II620O2OTZGPJH28IG5TTDRG,1459859226045,english,2,long,movie,neither P nor Q,neither long nor short,individual,extremely short,extremely long,0.9934835612235275,0.501,3,9604,10,0,enjoyed the study i thought was mentally engaging i liked it alot thank you for the opportunity to participate 
A3A28RJ83OIL3D:3WI0P0II620O2OTZGPJH28IG5TTDRG,1459859253277,english,3,tall,US male,Q and not-Q,short and not short,individual,extremely short,extremely tall,0.2679504811117721,0.495,2,27229,10,0,enjoyed the study i thought was mentally engaging i liked it alot thank you for the opportunity to participate 
A3A28RJ83OIL3D:3WI0P0II620O2OTZGPJH28IG5TTDRG,1459859287876,english,4,hot,bath,P,hot,stage,extremely cold,extremely hot,0.13847482246444076,0.827,7,34597,10,0,enjoyed the study i thought was mentally engaging i liked it alot thank you for the opportunity to participate 
A3A28RJ83OIL3D:3WI0P0II620O2OTZGPJH28IG5TTDRG,1459859297095,english,5,expensive,laptop,neither P nor not-P,neither expensive nor not expensive,individual,almost nothing,an enormous amount,0.34449607185598996,0.515,4,9216,10,0,enjoyed the study i thought was mentally engaging i liked it alot thank you for the opportunity to participate 
A3A28RJ83OIL3D:3WI0P0II620O2OTZGPJH28IG5TTDRG,1459859305700,english,6,fast,car,not-P ,not fast,stage,extremely slow,extremely fast,0.20654922379837704,0.167,7,8602,10,0,enjoyed the study i thought was mentally engaging i liked it alot thank you for the opportunity to participate 
A1BYG5EFRULJ1W:3QY5DC2MXSSDG0ZCBP9CVJ8LO2TFU7,1459780586214,english,1,full,band,Q,empty,stage,no one,sold out,0.31780306472347364,0.0,7,34669,10,0,enjoyed the study i thought was mentally engaging i liked it alot thank you for the opportunity to participate 
A1BYG5EFRULJ1W:3QY5DC2MXSSDG0ZCBP9CVJ8LO2TFU7,1459780612086,english,2,tall,US male,not-Q,not short,individual,extremely short,extremely tall,0.11423099120630265,0.722,2,25868,10,0,enjoyed the study i thought was mentally engaging i liked it alot thank you for the opportunity to participate 
A1BYG5EFRULJ1W:3QY5DC2MXSSDG0ZCBP9CVJ8LO2TFU7,1459780627481,english,3,hot,bath,neither P nor not-P,neither hot nor not hot,stage,extremely cold,extremely hot,0.4965494748226612,0.498,1,15391,10,0,enjoyed the study i thought was mentally engaging i liked it alot thank you for the opportunity to participate 
A1BYG5EFRULJ1W:3QY5DC2MXSSDG0ZCBP9CVJ8LO2TFU7,1459780657458,english,4,expensive,laptop,neither P nor Q,neither expensive nor cheap,individual,almost nothing,an enormous amount,0.38060140050371893,0.5,5,29969,10,0,enjoyed the study i thought was mentally engaging i liked it alot thank you for the opportunity to participate 
A1BYG5EFRULJ1W:3QY5DC2MXSSDG0ZCBP9CVJ8LO2TFU7,1459780673086,english,5,long,movie,Q and not-Q,short and not short,individual,extremely short,extremely long,0.27772182012992674,0.511,1,15623,10,0,enjoyed the study i thought was mentally engaging i liked it alot thank you for the opportunity to participate 
A1BYG5EFRULJ1W:3QY5DC2MXSSDG0ZCBP9CVJ8LO2TFU7,1459780690014,english,6,fast,car,P,fast,stage,extremely slow,extremely fast,0.4432253621120238,0.851,6,16924,10,0,enjoyed the study i thought was mentally engaging i liked it alot thank you for the opportunity to participate 
AYCLMGBGZN95I:3SKRO2GZ72Z8NP0SACQP0UVTL1CK1E,1459782139027,english,1,tall,US male,P and not-P,tall and not tall,individual,extremely short,extremely tall,0.9495440083296778,0.471,2,8825,10,0,enjoyed the study i thought was mentally engaging i liked it alot thank you for the opportunity to participate 
AYCLMGBGZN95I:3SKRO2GZ72Z8NP0SACQP0UVTL1CK1E,1459782146870,english,2,long,movie,not-P ,not long,individual,extremely short,extremely long,0.15269161016374455,0.17,3,7840,10,0,enjoyed the study i thought was mentally engaging i liked it alot thank you for the opportunity to participate 
AYCLMGBGZN95I:3SKRO2GZ72Z8NP0SACQP0UVTL1CK1E,1459782156286,english,3,fast,car,Q,slow,stage,extremely slow,extremely fast,0.666295413364673,0.346,4,9414,10,0,enjoyed the study i thought was mentally engaging i liked it alot thank you for the opportunity to participate 
AYCLMGBGZN95I:3SKRO2GZ72Z8NP0SACQP0UVTL1CK1E,1459782166830,english,4,full,band,Q and not-Q,empty and not empty,stage,no one,sold out,0.5696100007323477,0.262,1,10543,10,0,enjoyed the study i thought was mentally engaging i liked it alot thank you for the opportunity to participate 
AYCLMGBGZN95I:3SKRO2GZ72Z8NP0SACQP0UVTL1CK1E,1459782174671,english,5,expensive,laptop,neither Q nor not-Q,neither cheap nor not cheap,individual,almost nothing,an enormous amount,0.9147201655781161,0.469,5,7839,10,0,enjoyed the study i thought was mentally engaging i liked it alot thank you for the opportunity to participate 
AYCLMGBGZN95I:3SKRO2GZ72Z8NP0SACQP0UVTL1CK1E,1459782180304,english,6,hot,bath,neither P nor Q,neither hot nor cold,stage,extremely cold,extremely hot,0.30522121938421853,0.518,5,5631,10,0,enjoyed the study i thought was mentally engaging i liked it alot thank you for the opportunity to participate 
AK0Y6OITL7VGX:3IUZPWIU1PF1OQGV70FATKLNHELKWD,1459782094879,english,1,long,movie,neither P nor not-P,neither long nor not long,individual,extremely short,extremely long,0.9544193671438392,0.511,2,19148,10,0,enjoyed the study i thought was mentally engaging i liked it alot thank you for the opportunity to participate 
AK0Y6OITL7VGX:3IUZPWIU1PF1OQGV70FATKLNHELKWD,1459782105522,english,2,expensive,laptop,neither Q nor not-Q,neither cheap nor not cheap,individual,almost nothing,an enormous amount,0.17343094097861944,0.508,2,10642,10,0,enjoyed the study i thought was mentally engaging i liked it alot thank you for the opportunity to participate 
AK0Y6OITL7VGX:3IUZPWIU1PF1OQGV70FATKLNHELKWD,1459782113243,english,3,tall,US male,not-P ,not tall,individual,extremely short,extremely tall,0.6506700703946302,0.208,7,7720,10,0,enjoyed the study i thought was mentally engaging i liked it alot thank you for the opportunity to participate 
AK0Y6OITL7VGX:3IUZPWIU1PF1OQGV70FATKLNHELKWD,1459782126904,english,4,hot,bath,not-Q,not cold,stage,extremely cold,extremely hot,0.654508091531337,0.702,7,13660,10,0,enjoyed the study i thought was mentally engaging i liked it alot thank you for the opportunity to participate 
AK0Y6OITL7VGX:3IUZPWIU1PF1OQGV70FATKLNHELKWD,1459782138519,english,5,full,band,P,full,stage,no one,sold out,0.17495542568829503,1.0,7,11614,10,0,enjoyed the study i thought was mentally engaging i liked it alot thank you for the opportunity to participate 
AK0Y6OITL7VGX:3IUZPWIU1PF1OQGV70FATKLNHELKWD,1459782149617,english,6,fast,car,P and not-P,fast and not fast,stage,extremely slow,extremely fast,0.8503748611999071,0.507,1,11097,10,0,enjoyed the study i thought was mentally engaging i liked it alot thank you for the opportunity to participate 
ASARROL2Q6XRM:3HRMW88U17Y36OFDZ5Z5124N5E1M0I,1459782619055,english,1,tall,US male,P and not-P,tall and not tall,individual,extremely short,extremely tall,0.22163223677352029,0.527,2,8465,10,0,enjoyed the study i thought was mentally engaging i liked it alot thank you for the opportunity to participate 
ASARROL2Q6XRM:3HRMW88U17Y36OFDZ5Z5124N5E1M0I,1459782627976,english,2,full,band,neither Q nor not-Q,neither empty nor not empty,stage,no one,sold out,0.9999644841858775,0.462,1,8918,10,0,enjoyed the study i thought was mentally engaging i liked it alot thank you for the opportunity to participate 
ASARROL2Q6XRM:3HRMW88U17Y36OFDZ5Z5124N5E1M0I,1459782637369,english,3,long,movie,neither P nor Q,neither long nor short,individual,extremely short,extremely long,0.783979886465097,0.493,1,9391,10,0,enjoyed the study i thought was mentally engaging i liked it alot thank you for the opportunity to participate 
ASARROL2Q6XRM:3HRMW88U17Y36OFDZ5Z5124N5E1M0I,1459782643877,english,4,hot,bath,neither P nor not-P,neither hot nor not hot,stage,extremely cold,extremely hot,0.19616876194561428,0.485,1,6506,10,0,enjoyed the study i thought was mentally engaging i liked it alot thank you for the opportunity to participate 
ASARROL2Q6XRM:3HRMW88U17Y36OFDZ5Z5124N5E1M0I,1459782649917,english,5,expensive,laptop,not-Q,not cheap,individual,almost nothing,an enormous amount,0.8207803325914385,1.0,7,6038,10,0,enjoyed the study i thought was mentally engaging i liked it alot thank you for the opportunity to participate 
ASARROL2Q6XRM:3HRMW88U17Y36OFDZ5Z5124N5E1M0I,1459782659872,english,6,fast,car,not-P ,not fast,stage,extremely slow,extremely fast,0.7220772466359723,0.182,4,9953,10,0,enjoyed the study i thought was mentally engaging i liked it alot thank you for the opportunity to participate 
A16C6XX9Q3JIBW:3KXIR214I5OUY8TL8O3NYWG2GME243,1459787149817,english,1,expensive,laptop,Q and not-Q,cheap and not cheap,individual,almost nothing,an enormous amount,0.24922965706573308,0.335,4,46012,10,0,enjoyed the study i thought was mentally engaging i liked it alot thank you for the opportunity to participate 
A16C6XX9Q3JIBW:3KXIR214I5OUY8TL8O3NYWG2GME243,1459787203700,english,2,full,band,P and not-P,full and not full,stage,no one,sold out,0.7676638320058067,0.53,1,53881,10,0,enjoyed the study i thought was mentally engaging i liked it alot thank you for the opportunity to participate 
A16C6XX9Q3JIBW:3KXIR214I5OUY8TL8O3NYWG2GME243,1459787216959,english,3,tall,US male,not-P ,not tall,individual,extremely short,extremely tall,0.6059380824047136,0.258,6,13257,10,0,enjoyed the study i thought was mentally engaging i liked it alot thank you for the opportunity to participate 
A16C6XX9Q3JIBW:3KXIR214I5OUY8TL8O3NYWG2GME243,1459787232023,english,4,hot,bath,Q,cold,stage,extremely cold,extremely hot,0.934008938920853,0.154,7,15062,10,0,enjoyed the study i thought was mentally engaging i liked it alot thank you for the opportunity to participate 
A16C6XX9Q3JIBW:3KXIR214I5OUY8TL8O3NYWG2GME243,1459787253774,english,5,long,movie,neither Q nor not-Q,neither short nor not short,individual,extremely short,extremely long,0.3080424650503093,0.464,1,21749,10,0,enjoyed the study i thought was mentally engaging i liked it alot thank you for the opportunity to participate 
A16C6XX9Q3JIBW:3KXIR214I5OUY8TL8O3NYWG2GME243,1459787280260,english,6,fast,car,P,fast,stage,extremely slow,extremely fast,0.1531785527340146,0.791,6,26483,10,0,enjoyed the study i thought was mentally engaging i liked it alot thank you for the opportunity to participate 
A3BPTARPGHYU1N:3DI28L7YXBM51P8IEQFM2ZIO14JE1R,1459785068802,english,1,full,band,Q and not-Q,empty and not empty,stage,no one,sold out,0.08507735189050436,0.456,3,17565,10,0,enjoyed the study i thought was mentally engaging i liked it alot thank you for the opportunity to participate 
A3BPTARPGHYU1N:3DI28L7YXBM51P8IEQFM2ZIO14JE1R,1459785078186,english,2,expensive,laptop,not-Q,not cheap,individual,almost nothing,an enormous amount,0.15664220182225108,0.776,5,9381,10,0,enjoyed the study i thought was mentally engaging i liked it alot thank you for the opportunity to participate 
A3BPTARPGHYU1N:3DI28L7YXBM51P8IEQFM2ZIO14JE1R,1459785089061,english,3,fast,car,neither Q nor not-Q,neither slow nor not slow,stage,extremely slow,extremely fast,0.3872906225733459,0.508,2,10871,10,0,enjoyed the study i thought was mentally engaging i liked it alot thank you for the opportunity to participate 
A3BPTARPGHYU1N:3DI28L7YXBM51P8IEQFM2ZIO14JE1R,1459785096757,english,4,long,movie,not-P ,not long,individual,extremely short,extremely long,0.5494871083647013,0.286,5,7693,10,0,enjoyed the study i thought was mentally engaging i liked it alot thank you for the opportunity to participate 
A3BPTARPGHYU1N:3DI28L7YXBM51P8IEQFM2ZIO14JE1R,1459785102394,english,5,tall,US male,P,tall,individual,extremely short,extremely tall,0.8078695139847696,0.701,5,5634,10,0,enjoyed the study i thought was mentally engaging i liked it alot thank you for the opportunity to participate 
A3BPTARPGHYU1N:3DI28L7YXBM51P8IEQFM2ZIO14JE1R,1459785108567,english,6,hot,bath,neither P nor Q,neither hot nor cold,stage,extremely cold,extremely hot,0.9650776872877032,0.49,3,6171,10,0,enjoyed the study i thought was mentally engaging i liked it alot thank you for the opportunity to participate 
A1R5W4RQZTROD8:3K772S5NP9JG50TWGFI7UMYVITCHEQ,1459782213773,english,1,tall,US male,not-Q,not short,individual,extremely short,extremely tall,0.8563952514893358,0.528,3,12809,10,0,enjoyed the study i thought was mentally engaging i liked it alot thank you for the opportunity to participate 
A1R5W4RQZTROD8:3K772S5NP9JG50TWGFI7UMYVITCHEQ,1459782220572,english,2,long,movie,Q,short,individual,extremely short,extremely long,0.1075324354286935,0.165,6,6798,10,0,enjoyed the study i thought was mentally engaging i liked it alot thank you for the opportunity to participate 
A1R5W4RQZTROD8:3K772S5NP9JG50TWGFI7UMYVITCHEQ,1459782226014,english,3,hot,bath,neither P nor not-P,neither hot nor not hot,stage,extremely cold,extremely hot,0.1862412239838085,0.489,4,5440,10,0,enjoyed the study i thought was mentally engaging i liked it alot thank you for the opportunity to participate 
A1R5W4RQZTROD8:3K772S5NP9JG50TWGFI7UMYVITCHEQ,1459782236304,english,4,full,band,not-P ,not full,stage,no one,sold out,0.744827049725735,0.491,3,10289,10,0,enjoyed the study i thought was mentally engaging i liked it alot thank you for the opportunity to participate 
A1R5W4RQZTROD8:3K772S5NP9JG50TWGFI7UMYVITCHEQ,1459782247154,english,5,expensive,laptop,neither Q nor not-Q,neither cheap nor not cheap,individual,almost nothing,an enormous amount,0.4278505430008359,0.512,2,10848,10,0,enjoyed the study i thought was mentally engaging i liked it alot thank you for the opportunity to participate 
A1R5W4RQZTROD8:3K772S5NP9JG50TWGFI7UMYVITCHEQ,1459782257548,english,6,fast,car,neither P nor Q,neither fast nor slow,stage,extremely slow,extremely fast,0.8915243957429639,0.425,2,10392,10,0,enjoyed the study i thought was mentally engaging i liked it alot thank you for the opportunity to participate 
AWWD4KD3H0Y52:37Q970SNZFG6B8D0FLZRRGM32WB1S0,1459788789419,english,1,long,movie,not-P ,not long,individual,extremely short,extremely long,0.6082169380182896,0.24,6,13722,10,0,enjoyed the study i thought was mentally engaging i liked it alot thank you for the opportunity to participate 
AWWD4KD3H0Y52:37Q970SNZFG6B8D0FLZRRGM32WB1S0,1459788799154,english,2,expensive,laptop,neither Q nor not-Q,neither cheap nor not cheap,individual,almost nothing,an enormous amount,0.8705668485837508,0.489,2,9735,10,0,enjoyed the study i thought was mentally engaging i liked it alot thank you for the opportunity to participate 
AWWD4KD3H0Y52:37Q970SNZFG6B8D0FLZRRGM32WB1S0,1459788814250,english,3,full,band,not-Q,not empty,stage,no one,sold out,0.7953948077263036,0.604,3,15096,10,0,enjoyed the study i thought was mentally engaging i liked it alot thank you for the opportunity to participate 
AWWD4KD3H0Y52:37Q970SNZFG6B8D0FLZRRGM32WB1S0,1459788821722,english,4,hot,bath,Q and not-Q,cold and not cold,stage,extremely cold,extremely hot,0.7572737781706458,0.472,1,7472,10,0,enjoyed the study i thought was mentally engaging i liked it alot thank you for the opportunity to participate 
AWWD4KD3H0Y52:37Q970SNZFG6B8D0FLZRRGM32WB1S0,1459788828394,english,5,tall,US male,P,tall,individual,extremely short,extremely tall,0.20621451286678938,0.716,7,6671,10,0,enjoyed the study i thought was mentally engaging i liked it alot thank you for the opportunity to participate 
AWWD4KD3H0Y52:37Q970SNZFG6B8D0FLZRRGM32WB1S0,1459788835410,english,6,fast,car,neither P nor Q,neither fast nor slow,stage,extremely slow,extremely fast,0.5687194207507396,0.491,2,7016,10,0,enjoyed the study i thought was mentally engaging i liked it alot thank you for the opportunity to participate 
A3H0XGON3XVK12:3TDXMTX3CC2COGB1GFHUIA7X19VI6T,1459791817358,English,1,fast,car,neither Q nor not-Q,neither slow nor not slow,stage,extremely slow,extremely fast,0.3659454401094824,0.527,1,15802,6,2,
A3H0XGON3XVK12:3TDXMTX3CC2COGB1GFHUIA7X19VI6T,1459791830420,English,2,expensive,laptop,neither P nor not-P,neither expensive nor not expensive,individual,almost nothing,an enormous amount,0.49151697603861044,0.538,1,13061,6,2,
A3H0XGON3XVK12:3TDXMTX3CC2COGB1GFHUIA7X19VI6T,1459791840656,English,3,tall,US male,P,tall,individual,extremely short,extremely tall,0.2880185421989574,0.739,7,10235,6,2,
A3H0XGON3XVK12:3TDXMTX3CC2COGB1GFHUIA7X19VI6T,1459791862312,English,4,full,band,Q,empty,stage,no one,sold out,0.9992167035005035,0.0,3,21653,6,2,
A3H0XGON3XVK12:3TDXMTX3CC2COGB1GFHUIA7X19VI6T,1459791873300,English,5,hot,bath,neither P nor Q,neither hot nor cold,stage,extremely cold,extremely hot,0.09480999748735308,0.515,3,10985,6,2,
A3H0XGON3XVK12:3TDXMTX3CC2COGB1GFHUIA7X19VI6T,1459791887960,English,6,long,movie,not-P ,not long,individual,extremely short,extremely long,0.9328385081093511,0.357,5,14658,6,2,
A1SXRLI2J6IYY9:338JKRMM277DFNCK0AGLY384XEHAHR,1459784802298,Spanish,1,tall,US male,Q,short,individual,extremely short,extremely tall,0.7131775587331504,0.244,7,16088,7,2,
A1SXRLI2J6IYY9:338JKRMM277DFNCK0AGLY384XEHAHR,1459784823310,Spanish,2,hot,bath,P and not-P,hot and not hot,stage,extremely cold,extremely hot,0.8581493010278791,0.481,3,21000,7,2,
A1SXRLI2J6IYY9:338JKRMM277DFNCK0AGLY384XEHAHR,1459784857225,Spanish,3,full,band,not-Q,not empty,stage,no one,sold out,0.9734880598261952,0.294,3,33906,7,2,
A1SXRLI2J6IYY9:338JKRMM277DFNCK0AGLY384XEHAHR,1459784873336,Spanish,4,long,movie,P,long,individual,extremely short,extremely long,0.6434104267973453,0.666,7,16103,7,2,
A1SXRLI2J6IYY9:338JKRMM277DFNCK0AGLY384XEHAHR,1459784883227,Spanish,5,fast,car,Q and not-Q,slow and not slow,stage,extremely slow,extremely fast,0.15799566451460123,0.482,3,9886,7,2,
A1SXRLI2J6IYY9:338JKRMM277DFNCK0AGLY384XEHAHR,1459784897061,Spanish,6,expensive,laptop,neither P nor not-P,neither expensive nor not expensive,individual,almost nothing,an enormous amount,0.12158148433081806,0.471,3,13825,7,2,
A1GMJZUQ8Q7053:3H7Z272LX8FMON1CGEDGGQQ6DHMPLP,1459782562807,English,1,tall,US male,Q,short,individual,extremely short,extremely tall,0.17866847964886934,0.314,6,9436,1,1,No.
A1GMJZUQ8Q7053:3H7Z272LX8FMON1CGEDGGQQ6DHMPLP,1459782568730,English,2,fast,car,neither P nor Q,neither fast nor slow,stage,extremely slow,extremely fast,0.7359239230330417,0.487,3,5922,1,1,No.
A1GMJZUQ8Q7053:3H7Z272LX8FMON1CGEDGGQQ6DHMPLP,1459782581965,English,3,hot,bath,neither P nor not-P,neither hot nor not hot,stage,extremely cold,extremely hot,0.2240625765620048,0.693,3,13233,1,1,No.
A1GMJZUQ8Q7053:3H7Z272LX8FMON1CGEDGGQQ6DHMPLP,1459782598104,English,4,full,band,not-Q,not empty,stage,no one,sold out,0.6711917519344726,0.371,4,16139,1,1,No.
A1GMJZUQ8Q7053:3H7Z272LX8FMON1CGEDGGQQ6DHMPLP,1459782604744,English,5,expensive,laptop,neither Q nor not-Q,neither cheap nor not cheap,individual,almost nothing,an enormous amount,0.3351521859951818,0.471,3,6638,1,1,No.
A1GMJZUQ8Q7053:3H7Z272LX8FMON1CGEDGGQQ6DHMPLP,1459782608875,English,6,long,movie,P,long,individual,extremely short,extremely long,0.16534028001965217,0.726,6,4131,1,1,No.
A2C9F0F66Q19C6:3TPWUS5F8A9J5S47FNYC518FC7VWCZ,1459803626548,English,1,tall,US male,neither P nor Q,neither tall nor short,individual,extremely short,extremely tall,0.6538305939175189,0.485,2,14472,8,1,
A2C9F0F66Q19C6:3TPWUS5F8A9J5S47FNYC518FC7VWCZ,1459803652062,English,2,expensive,laptop,Q and not-Q,cheap and not cheap,individual,almost nothing,an enormous amount,0.8173181198071688,0.477,1,25512,8,1,
A2C9F0F66Q19C6:3TPWUS5F8A9J5S47FNYC518FC7VWCZ,1459803661845,English,3,long,movie,P,long,individual,extremely short,extremely long,0.8757982722017914,0.733,7,9783,8,1,
A2C9F0F66Q19C6:3TPWUS5F8A9J5S47FNYC518FC7VWCZ,1459803669462,English,4,hot,bath,Q,cold,stage,extremely cold,extremely hot,0.393329625017941,0.217,5,7615,8,1,
A2C9F0F66Q19C6:3TPWUS5F8A9J5S47FNYC518FC7VWCZ,1459803675105,English,5,fast,car,not-Q,not slow,stage,extremely slow,extremely fast,0.48327465169131756,0.629,1,5643,8,1,
A2C9F0F66Q19C6:3TPWUS5F8A9J5S47FNYC518FC7VWCZ,1459803685606,English,6,full,band,neither Q nor not-Q,neither empty nor not empty,stage,no one,sold out,0.31855314783751965,0.493,1,10499,8,1,
A12J4IRF5Z06BT:3ZWFC4W1UVFL087V7VE7Q8L1H3QFR4,1459783818266,English,1,full,band,neither P nor Q,neither full nor empty,stage,no one,sold out,0.9249515051409942,0.505,6,15452,8,0,INteresting survey.  Thanks for letting me participate.  Good luck with your data collection. 
A12J4IRF5Z06BT:3ZWFC4W1UVFL087V7VE7Q8L1H3QFR4,1459783830706,English,2,long,movie,not-P ,not long,individual,extremely short,extremely long,0.9771626346689957,0.216,7,12439,8,0,INteresting survey.  Thanks for letting me participate.  Good luck with your data collection. 
A12J4IRF5Z06BT:3ZWFC4W1UVFL087V7VE7Q8L1H3QFR4,1459783839641,English,3,fast,car,Q,slow,stage,extremely slow,extremely fast,0.5116963917768098,0.188,7,8933,8,0,INteresting survey.  Thanks for letting me participate.  Good luck with your data collection. 
A12J4IRF5Z06BT:3ZWFC4W1UVFL087V7VE7Q8L1H3QFR4,1459783847433,English,4,tall,US male,neither Q nor not-Q,neither short nor not short,individual,extremely short,extremely tall,0.24034320725481173,0.507,2,7791,8,0,INteresting survey.  Thanks for letting me participate.  Good luck with your data collection. 
A12J4IRF5Z06BT:3ZWFC4W1UVFL087V7VE7Q8L1H3QFR4,1459783856713,English,5,hot,bath,neither P nor not-P,neither hot nor not hot,stage,extremely cold,extremely hot,0.786990119993386,0.509,1,9279,8,0,INteresting survey.  Thanks for letting me participate.  Good luck with your data collection. 
A12J4IRF5Z06BT:3ZWFC4W1UVFL087V7VE7Q8L1H3QFR4,1459783865434,English,6,expensive,laptop,not-Q,not cheap,individual,almost nothing,an enormous amount,0.5906028975093673,0.845,7,8719,8,0,INteresting survey.  Thanks for letting me participate.  Good luck with your data collection. 
A9317WH3Y1SZ8:320DUZ38G8UAGKKDAABG62ZM81XJGG,1459784733159,English,1,fast,car,P,fast,stage,extremely slow,extremely fast,0.5754384466358589,0.683,7,8351,4,1,
A9317WH3Y1SZ8:320DUZ38G8UAGKKDAABG62ZM81XJGG,1459784740393,English,2,full,band,P and not-P,full and not full,stage,no one,sold out,0.9168649500552766,0.547,2,7231,4,1,
A9317WH3Y1SZ8:320DUZ38G8UAGKKDAABG62ZM81XJGG,1459784745936,English,3,hot,bath,neither P nor Q,neither hot nor cold,stage,extremely cold,extremely hot,0.7797702034488545,0.423,3,5541,4,1,
A9317WH3Y1SZ8:320DUZ38G8UAGKKDAABG62ZM81XJGG,1459784751000,English,4,expensive,laptop,Q,cheap,individual,almost nothing,an enormous amount,0.7604639072272363,0.148,7,5062,4,1,
A9317WH3Y1SZ8:320DUZ38G8UAGKKDAABG62ZM81XJGG,1459784760817,English,5,tall,US male,not-P ,not tall,individual,extremely short,extremely tall,0.9201895812833094,0.309,6,9815,4,1,
A9317WH3Y1SZ8:320DUZ38G8UAGKKDAABG62ZM81XJGG,1459784771584,English,6,long,movie,neither P nor not-P,neither long nor not long,individual,extremely short,extremely long,0.824150335844462,0.365,2,10764,4,1,
A85ATJSDTIARY:3RJSC4XJ1125YHU776IJK0T1JJB50B,1459780674267,English,1,fast,car,P,fast,stage,extremely slow,extremely fast,0.2181214248837391,0.794,6,10105,10,0,
A85ATJSDTIARY:3RJSC4XJ1125YHU776IJK0T1JJB50B,1459780693836,English,2,full,band,not-P ,not full,stage,no one,sold out,0.41283137149054516,0.282,7,19567,10,0,
A85ATJSDTIARY:3RJSC4XJ1125YHU776IJK0T1JJB50B,1459780701985,English,3,long,movie,neither P nor not-P,neither long nor not long,individual,extremely short,extremely long,0.29354361420820285,0.519,4,8148,10,0,
A85ATJSDTIARY:3RJSC4XJ1125YHU776IJK0T1JJB50B,1459780712765,English,4,expensive,laptop,Q,cheap,individual,almost nothing,an enormous amount,0.3467942155786472,0.262,7,10779,10,0,
A85ATJSDTIARY:3RJSC4XJ1125YHU776IJK0T1JJB50B,1459780725066,English,5,hot,bath,neither Q nor not-Q,neither cold nor not cold,stage,extremely cold,extremely hot,0.9971697100957075,0.561,4,12298,10,0,
A85ATJSDTIARY:3RJSC4XJ1125YHU776IJK0T1JJB50B,1459780733744,English,6,tall,US male,P and not-P,tall and not tall,individual,extremely short,extremely tall,0.8902073503526928,0.504,3,8677,10,0,
A1X5IZPCRLL0Z7:3N4BPTXIO90OWMRQC009BW0QWZQUK6,1459787922003,English,1,expensive,laptop,Q and not-Q,cheap and not cheap,individual,almost nothing,an enormous amount,0.17642104684235793,0.44,7,20772,5,1,
A1X5IZPCRLL0Z7:3N4BPTXIO90OWMRQC009BW0QWZQUK6,1459787928843,English,2,tall,US male,P and not-P,tall and not tall,individual,extremely short,extremely tall,0.11600474770597158,0.484,7,6837,5,1,
A1X5IZPCRLL0Z7:3N4BPTXIO90OWMRQC009BW0QWZQUK6,1459787941708,English,3,full,band,not-P ,not full,stage,no one,sold out,0.8996063256960098,0.199,6,12862,5,1,
A1X5IZPCRLL0Z7:3N4BPTXIO90OWMRQC009BW0QWZQUK6,1459787954035,English,4,hot,bath,not-Q,not cold,stage,extremely cold,extremely hot,0.15007411292925754,0.71,5,12327,5,1,
A1X5IZPCRLL0Z7:3N4BPTXIO90OWMRQC009BW0QWZQUK6,1459787960985,English,5,fast,car,neither P nor Q,neither fast nor slow,stage,extremely slow,extremely fast,0.07116382467957783,0.489,6,6950,5,1,
A1X5IZPCRLL0Z7:3N4BPTXIO90OWMRQC009BW0QWZQUK6,1459787965642,English,6,long,movie,Q,short,individual,extremely short,extremely long,0.9687947137564525,0.256,6,4657,5,1,
AAU61MG2R6RH0:33C7UALJVM6OSOYR1NTMAPM2Q4W813,1459833327731,English,1,tall,US male,Q,short,individual,extremely short,extremely tall,0.6187558573709195,0.251,7,17665,5,1,
AAU61MG2R6RH0:33C7UALJVM6OSOYR1NTMAPM2Q4W813,1459833338009,English,2,expensive,laptop,P,expensive,individual,almost nothing,an enormous amount,0.14571190144824797,0.751,7,10245,5,1,
AAU61MG2R6RH0:33C7UALJVM6OSOYR1NTMAPM2Q4W813,1459833373430,English,3,full,band,neither Q nor not-Q,neither empty nor not empty,stage,no one,sold out,0.6946661164433596,0.514,2,35404,5,1,
AAU61MG2R6RH0:33C7UALJVM6OSOYR1NTMAPM2Q4W813,1459833388389,English,4,long,movie,P and not-P,long and not long,individual,extremely short,extremely long,0.5136421817600463,0.552,1,14942,5,1,
AAU61MG2R6RH0:33C7UALJVM6OSOYR1NTMAPM2Q4W813,1459833410327,English,5,hot,bath,Q and not-Q,cold and not cold,stage,extremely cold,extremely hot,0.07544408791865154,0.482,2,21932,5,1,
AAU61MG2R6RH0:33C7UALJVM6OSOYR1NTMAPM2Q4W813,1459833425167,English,6,fast,car,neither P nor Q,neither fast nor slow,stage,extremely slow,extremely fast,0.8555630995047911,0.504,7,14824,5,1,
A192KH5OJUUAZ4:3YJ6NA41JCOGTXDCDT130BDE9TFPJN,1459794358614,English,1,fast,car,not-Q,not slow,stage,extremely slow,extremely fast,0.11736785345895662,0.484,1,12520,5,1,
A192KH5OJUUAZ4:3YJ6NA41JCOGTXDCDT130BDE9TFPJN,1459794369302,English,2,hot,bath,P and not-P,hot and not hot,stage,extremely cold,extremely hot,0.2535191962876675,0.594,1,10685,5,1,
A192KH5OJUUAZ4:3YJ6NA41JCOGTXDCDT130BDE9TFPJN,1459794376308,English,3,tall,US male,not-P ,not tall,individual,extremely short,extremely tall,0.18917514374883604,0.277,7,7005,5,1,
A192KH5OJUUAZ4:3YJ6NA41JCOGTXDCDT130BDE9TFPJN,1459794388836,English,4,full,band,Q,empty,stage,no one,sold out,0.027692006011532655,0.212,7,12527,5,1,
A192KH5OJUUAZ4:3YJ6NA41JCOGTXDCDT130BDE9TFPJN,1459794397772,English,5,long,movie,neither P nor Q,neither long nor short,individual,extremely short,extremely long,0.7282073560552729,0.482,5,8932,5,1,
A192KH5OJUUAZ4:3YJ6NA41JCOGTXDCDT130BDE9TFPJN,1459794406725,English,6,expensive,laptop,neither Q nor not-Q,neither cheap nor not cheap,individual,almost nothing,an enormous amount,0.22316267095512266,0.484,1,8950,5,1,
A2CBZBEB12JE9:34FNN24DCNH2VCQSFETSCSNLVZAY5V,1459856614446,English ,1,fast,car,P,fast,stage,extremely slow,extremely fast,0.8663592499967621,0.689,6,21218,10,0,
A2CBZBEB12JE9:34FNN24DCNH2VCQSFETSCSNLVZAY5V,1459856648137,English ,2,full,band,Q,empty,stage,no one,sold out,0.9638932591769971,0.055,7,33679,10,0,
A2CBZBEB12JE9:34FNN24DCNH2VCQSFETSCSNLVZAY5V,1459856672406,English ,3,hot,bath,Q and not-Q,cold and not cold,stage,extremely cold,extremely hot,0.2243245000527896,0.491,1,24253,10,0,
A2CBZBEB12JE9:34FNN24DCNH2VCQSFETSCSNLVZAY5V,1459856690254,English ,4,long,movie,neither Q nor not-Q,neither short nor not short,individual,extremely short,extremely long,0.1266393291202329,0.478,1,17838,10,0,
A2CBZBEB12JE9:34FNN24DCNH2VCQSFETSCSNLVZAY5V,1459856714436,English ,5,tall,US male,not-P ,not tall,individual,extremely short,extremely tall,0.3551688644109271,0.363,5,24175,10,0,
A2CBZBEB12JE9:34FNN24DCNH2VCQSFETSCSNLVZAY5V,1459856727177,English ,6,expensive,laptop,neither P nor Q,neither expensive nor cheap,individual,almost nothing,an enormous amount,0.9199136736299663,0.514,1,12732,10,0,
A1Q7XZMVQXCESC:3A1PQ49WVIPHLZZK4RNSN2F1TNUH1Z,1459860064861,English,1,tall,US male,P,tall,individual,extremely short,extremely tall,0.6050582447843507,0.579,7,15855,8,3,No comments
A1Q7XZMVQXCESC:3A1PQ49WVIPHLZZK4RNSN2F1TNUH1Z,1459860097383,English,2,full,band,Q and not-Q,empty and not empty,stage,no one,sold out,0.11801214918670466,0.585,2,32508,8,3,No comments
A1Q7XZMVQXCESC:3A1PQ49WVIPHLZZK4RNSN2F1TNUH1Z,1459860113378,English,3,hot,bath,not-P ,not hot,stage,extremely cold,extremely hot,0.07104629914635652,0.407,3,15989,8,3,No comments
A1Q7XZMVQXCESC:3A1PQ49WVIPHLZZK4RNSN2F1TNUH1Z,1459860135035,English,4,expensive,laptop,neither P nor Q,neither expensive nor cheap,individual,almost nothing,an enormous amount,0.6078753424746058,0.474,1,21648,8,3,No comments
A1Q7XZMVQXCESC:3A1PQ49WVIPHLZZK4RNSN2F1TNUH1Z,1459860146525,English,5,fast,car,not-Q,not slow,stage,extremely slow,extremely fast,0.958760553308291,0.633,1,11469,8,3,No comments
A1Q7XZMVQXCESC:3A1PQ49WVIPHLZZK4RNSN2F1TNUH1Z,1459860162338,English,6,long,movie,P and not-P,long and not long,individual,extremely short,extremely long,0.30077459587485844,0.703,1,15794,8,3,No comments
AK3H5QRAROFGP:37Z929RLGAG7KSP9H4J1XM5YUEHSTD,1459786351200,english,1,long,movie,P,long,individual,extremely short,extremely long,0.7554706181221318,0.849,7,13937,7,4,"Very interesting, thank you!"
AK3H5QRAROFGP:37Z929RLGAG7KSP9H4J1XM5YUEHSTD,1459786364785,english,2,expensive,laptop,neither P nor Q,neither expensive nor cheap,individual,almost nothing,an enormous amount,0.5715823789168244,0.496,6,13584,7,4,"Very interesting, thank you!"
AK3H5QRAROFGP:37Z929RLGAG7KSP9H4J1XM5YUEHSTD,1459786375084,english,3,hot,bath,Q,cold,stage,extremely cold,extremely hot,0.9496540562687983,0.248,7,10297,7,4,"Very interesting, thank you!"
AK3H5QRAROFGP:37Z929RLGAG7KSP9H4J1XM5YUEHSTD,1459786392114,english,4,full,band,not-P ,not full,stage,no one,sold out,0.9781760224634284,0.614,6,17029,7,4,"Very interesting, thank you!"
AK3H5QRAROFGP:37Z929RLGAG7KSP9H4J1XM5YUEHSTD,1459786406886,english,5,tall,US male,neither Q nor not-Q,neither short nor not short,individual,extremely short,extremely tall,0.6483695834387382,0.498,1,14770,7,4,"Very interesting, thank you!"
AK3H5QRAROFGP:37Z929RLGAG7KSP9H4J1XM5YUEHSTD,1459786414483,english,6,fast,car,not-Q,not slow,stage,extremely slow,extremely fast,0.5336415085920527,0.504,1,7596,7,4,"Very interesting, thank you!"
A3LKJENHEI94WC:35GCEFQ6I6WZMNDTXH7IB2Y3NV1Z37,1459795130477,english,1,hot,bath,P and not-P,hot and not hot,stage,extremely cold,extremely hot,0.24808266714956195,0.423,7,13493,7,2,
A3LKJENHEI94WC:35GCEFQ6I6WZMNDTXH7IB2Y3NV1Z37,1459795148699,english,2,long,movie,neither P nor not-P,neither long nor not long,individual,extremely short,extremely long,0.5313217048504808,0.549,7,18219,7,2,
A3LKJENHEI94WC:35GCEFQ6I6WZMNDTXH7IB2Y3NV1Z37,1459795161187,english,3,fast,car,not-P ,not fast,stage,extremely slow,extremely fast,0.04329035749622112,0.064,6,12487,7,2,
A3LKJENHEI94WC:35GCEFQ6I6WZMNDTXH7IB2Y3NV1Z37,1459795170619,english,4,full,band,P,full,stage,no one,sold out,0.9939948009022261,0.975,6,9430,7,2,
A3LKJENHEI94WC:35GCEFQ6I6WZMNDTXH7IB2Y3NV1Z37,1459795177787,english,5,expensive,laptop,Q,cheap,individual,almost nothing,an enormous amount,0.0999214162170865,0.104,6,7165,7,2,
A3LKJENHEI94WC:35GCEFQ6I6WZMNDTXH7IB2Y3NV1Z37,1459795186011,english,6,tall,US male,neither Q nor not-Q,neither short nor not short,individual,extremely short,extremely tall,0.36649545794257454,0.532,7,8222,7,2,
A2HTDJ0S1Y92Q2:3TAYZSBPLMGD0TVWYPZ5WZW8U4LS28,1459849299056,English,1,full,band,neither P nor not-P,neither full nor not full,stage,no one,sold out,0.2297227975070968,0.344,5,34218,8,1,no
A2HTDJ0S1Y92Q2:3TAYZSBPLMGD0TVWYPZ5WZW8U4LS28,1459849313067,English,2,hot,bath,P and not-P,hot and not hot,stage,extremely cold,extremely hot,0.11879917708222387,0.488,6,14007,8,1,no
A2HTDJ0S1Y92Q2:3TAYZSBPLMGD0TVWYPZ5WZW8U4LS28,1459849325435,English,3,fast,car,not-Q,not slow,stage,extremely slow,extremely fast,0.38811277828093993,0.682,6,12367,8,1,no
A2HTDJ0S1Y92Q2:3TAYZSBPLMGD0TVWYPZ5WZW8U4LS28,1459849341273,English,4,long,movie,neither Q nor not-Q,neither short nor not short,individual,extremely short,extremely long,0.7827026202498977,0.824,6,15837,8,1,no
A2HTDJ0S1Y92Q2:3TAYZSBPLMGD0TVWYPZ5WZW8U4LS28,1459849352053,English,5,expensive,laptop,Q,cheap,individual,almost nothing,an enormous amount,0.3718402058496191,0.312,7,10778,8,1,no
A2HTDJ0S1Y92Q2:3TAYZSBPLMGD0TVWYPZ5WZW8U4LS28,1459849363301,English,6,tall,US male,neither P nor Q,neither tall nor short,individual,extremely short,extremely tall,0.8656739502274462,0.511,7,11247,8,1,no
A1FA1L9ASOU9R7:35BLDD71I75JYWFCHRDOUXQMEFCZVM,1459787668692,English,1,fast,car,P,fast,stage,extremely slow,extremely fast,0.3394768538419157,0.7,3,21776,8,0,I thought this was different and interesting. I would like to do more!
A1FA1L9ASOU9R7:35BLDD71I75JYWFCHRDOUXQMEFCZVM,1459787684763,English,2,tall,US male,neither P nor Q,neither tall nor short,individual,extremely short,extremely tall,0.3937755199149251,0.475,6,16068,8,0,I thought this was different and interesting. I would like to do more!
A1FA1L9ASOU9R7:35BLDD71I75JYWFCHRDOUXQMEFCZVM,1459787702427,English,3,long,movie,neither Q nor not-Q,neither short nor not short,individual,extremely short,extremely long,0.5204240267630666,0.478,1,17662,8,0,I thought this was different and interesting. I would like to do more!
A1FA1L9ASOU9R7:35BLDD71I75JYWFCHRDOUXQMEFCZVM,1459787734259,English,4,full,band,Q,empty,stage,no one,sold out,0.24788710684515536,0.0,7,31830,8,0,I thought this was different and interesting. I would like to do more!
A1FA1L9ASOU9R7:35BLDD71I75JYWFCHRDOUXQMEFCZVM,1459787751205,English,5,hot,bath,Q and not-Q,cold and not cold,stage,extremely cold,extremely hot,0.7770568705163896,0.409,1,16944,8,0,I thought this was different and interesting. I would like to do more!
A1FA1L9ASOU9R7:35BLDD71I75JYWFCHRDOUXQMEFCZVM,1459787768274,English,6,expensive,laptop,not-P ,not expensive,individual,almost nothing,an enormous amount,0.8488068506121635,0.241,7,17067,8,0,I thought this was different and interesting. I would like to do more!
A1TN5VBAYB5GD9:33TIN5LC05ILWZS4I469O8SNHTFY94,1459785941703,English,1,full,band,neither P nor not-P,neither full nor not full,stage,no one,sold out,0.28817242907071106,0.505,2,16317,9,0,
A1TN5VBAYB5GD9:33TIN5LC05ILWZS4I469O8SNHTFY94,1459785952170,English,2,fast,car,neither P nor Q,neither fast nor slow,stage,extremely slow,extremely fast,0.8601342684938331,0.378,3,10467,9,0,
A1TN5VBAYB5GD9:33TIN5LC05ILWZS4I469O8SNHTFY94,1459785963826,English,3,hot,bath,P and not-P,hot and not hot,stage,extremely cold,extremely hot,0.25684037563751017,0.473,3,11656,9,0,
A1TN5VBAYB5GD9:33TIN5LC05ILWZS4I469O8SNHTFY94,1459785975002,English,4,expensive,laptop,neither Q nor not-Q,neither cheap nor not cheap,individual,almost nothing,an enormous amount,0.6966602548708603,0.582,4,11176,9,0,
A1TN5VBAYB5GD9:33TIN5LC05ILWZS4I469O8SNHTFY94,1459785984243,English,5,long,movie,P,long,individual,extremely short,extremely long,0.19923666381317373,0.812,7,9241,9,0,
A1TN5VBAYB5GD9:33TIN5LC05ILWZS4I469O8SNHTFY94,1459785991647,English,6,tall,US male,not-Q,not short,individual,extremely short,extremely tall,0.8158945044904171,0.594,6,7404,9,0,
ATXD32K0HEP2C:3U0SRXB7CEDXO0KC5JXKYDUAJUFNRM,1459786030519,english,1,hot,bath,P,hot,stage,extremely cold,extremely hot,0.9400274109781552,0.814,6,12311,8,2,no
ATXD32K0HEP2C:3U0SRXB7CEDXO0KC5JXKYDUAJUFNRM,1459786041460,english,2,fast,car,P and not-P,fast and not fast,stage,extremely slow,extremely fast,0.960168216241551,0.387,1,10924,8,2,no
ATXD32K0HEP2C:3U0SRXB7CEDXO0KC5JXKYDUAJUFNRM,1459786051013,english,3,expensive,laptop,neither P nor not-P,neither expensive nor not expensive,individual,almost nothing,an enormous amount,0.4373571101670415,0.382,4,9525,8,2,no
ATXD32K0HEP2C:3U0SRXB7CEDXO0KC5JXKYDUAJUFNRM,1459786064331,english,4,tall,US male,neither Q nor not-Q,neither short nor not short,individual,extremely short,extremely tall,0.20516096288782304,0.191,1,13301,8,2,no
ATXD32K0HEP2C:3U0SRXB7CEDXO0KC5JXKYDUAJUFNRM,1459786078528,english,5,full,band,Q,empty,stage,no one,sold out,0.4807548056531705,0.077,7,14188,8,2,no
ATXD32K0HEP2C:3U0SRXB7CEDXO0KC5JXKYDUAJUFNRM,1459786086630,english,6,long,movie,Q and not-Q,short and not short,individual,extremely short,extremely long,0.36352271982801665,0.248,1,8059,8,2,no
A143I60XRE97LR:3IFS6Q0HJJRHBE9YNSKXJF3PJX4ISP,1459786037175,english,1,long,movie,neither Q nor not-Q,neither short nor not short,individual,extremely short,extremely long,0.21043216607716375,0.504,5,14123,8,2,no
A143I60XRE97LR:3IFS6Q0HJJRHBE9YNSKXJF3PJX4ISP,1459786047353,english,2,expensive,laptop,not-Q,not cheap,individual,almost nothing,an enormous amount,0.58178368826609,0.732,7,10176,8,2,no
A143I60XRE97LR:3IFS6Q0HJJRHBE9YNSKXJF3PJX4ISP,1459786054575,english,3,tall,US male,P and not-P,tall and not tall,individual,extremely short,extremely tall,0.5836704010217456,0.492,3,7220,8,2,no
A143I60XRE97LR:3IFS6Q0HJJRHBE9YNSKXJF3PJX4ISP,1459786065294,english,4,hot,bath,Q,cold,stage,extremely cold,extremely hot,0.8113000425162926,0.233,7,10717,8,2,no
A143I60XRE97LR:3IFS6Q0HJJRHBE9YNSKXJF3PJX4ISP,1459786074267,english,5,fast,car,neither P nor not-P,neither fast nor not fast,stage,extremely slow,extremely fast,0.6524686874198119,0.489,5,8970,8,2,no
A143I60XRE97LR:3IFS6Q0HJJRHBE9YNSKXJF3PJX4ISP,1459786091554,english,6,full,band,Q and not-Q,empty and not empty,stage,no one,sold out,0.8755214077433812,0.5,5,17286,8,2,no
ARPORQMJIBTP2:3KKG4CDWKJ65YSEKTXI28JOGMUP947,1459839823010,english,1,fast,car,not-Q,not slow,stage,extremely slow,extremely fast,0.9999603405594826,1.0,1,28989,8,2,no
ARPORQMJIBTP2:3KKG4CDWKJ65YSEKTXI28JOGMUP947,1459839853838,english,2,tall,US male,neither Q nor not-Q,neither short nor not short,individual,extremely short,extremely tall,0.925410034134984,1.0,1,30825,8,2,no
ARPORQMJIBTP2:3KKG4CDWKJ65YSEKTXI28JOGMUP947,1459839963158,english,3,full,band,neither P nor Q,neither full nor empty,stage,no one,sold out,0.5909666859079152,1.0,1,109318,8,2,no
ARPORQMJIBTP2:3KKG4CDWKJ65YSEKTXI28JOGMUP947,1459839974934,english,4,hot,bath,P,hot,stage,extremely cold,extremely hot,0.6237141739111394,1.0,7,11774,8,2,no
ARPORQMJIBTP2:3KKG4CDWKJ65YSEKTXI28JOGMUP947,1459839987942,english,5,expensive,laptop,Q,cheap,individual,almost nothing,an enormous amount,0.18102270551025867,0.0,7,13006,8,2,no
ARPORQMJIBTP2:3KKG4CDWKJ65YSEKTXI28JOGMUP947,1459840000446,english,6,long,movie,not-P ,not long,individual,extremely short,extremely long,0.8651216337457299,0.0,7,12503,8,2,no
A39ROW50DWRRKT:3H7XDTSHKDZWM4KCH9UVVSTUAX4WGM,1459781040461,English,1,hot,bath,Q and not-Q,cold and not cold,stage,extremely cold,extremely hot,0.8740861057414167,0.186,2,12756,8,4,Thanks for the opportunity.
A39ROW50DWRRKT:3H7XDTSHKDZWM4KCH9UVVSTUAX4WGM,1459781048331,English,2,expensive,laptop,P,expensive,individual,almost nothing,an enormous amount,0.7271491288095904,0.744,7,7865,8,4,Thanks for the opportunity.
A39ROW50DWRRKT:3H7XDTSHKDZWM4KCH9UVVSTUAX4WGM,1459781058014,English,3,fast,car,neither P nor not-P,neither fast nor not fast,stage,extremely slow,extremely fast,0.5724997899989894,0.25,1,9679,8,4,Thanks for the opportunity.
A39ROW50DWRRKT:3H7XDTSHKDZWM4KCH9UVVSTUAX4WGM,1459781063907,English,4,full,band,Q,empty,stage,no one,sold out,0.8757276457139134,0.0,7,5892,8,4,Thanks for the opportunity.
A39ROW50DWRRKT:3H7XDTSHKDZWM4KCH9UVVSTUAX4WGM,1459781070125,English,5,long,movie,not-Q,not short,individual,extremely short,extremely long,0.9993118781219208,0.73,5,6216,8,4,Thanks for the opportunity.
A39ROW50DWRRKT:3H7XDTSHKDZWM4KCH9UVVSTUAX4WGM,1459781075913,English,6,tall,US male,P and not-P,tall and not tall,individual,extremely short,extremely tall,0.2971347522376908,0.52,1,5784,8,4,Thanks for the opportunity.
AURYD2FH3FUOQ:3CFJTT4SXUYVSGP6ZPMMOO7TWJNI7Y,1459782137642,English,1,long,movie,not-P ,not long,individual,extremely short,extremely long,0.2698022735966332,0.393,5,14495,7,2,
AURYD2FH3FUOQ:3CFJTT4SXUYVSGP6ZPMMOO7TWJNI7Y,1459782154786,English,2,fast,car,P,fast,stage,extremely slow,extremely fast,0.7088169005238987,0.753,7,17134,7,2,
AURYD2FH3FUOQ:3CFJTT4SXUYVSGP6ZPMMOO7TWJNI7Y,1459782167659,English,3,expensive,laptop,Q and not-Q,cheap and not cheap,individual,almost nothing,an enormous amount,0.5752353303711454,0.498,2,12865,7,2,
AURYD2FH3FUOQ:3CFJTT4SXUYVSGP6ZPMMOO7TWJNI7Y,1459782186123,English,4,tall,US male,neither Q nor not-Q,neither short nor not short,individual,extremely short,extremely tall,0.14308264733828024,0.518,1,18452,7,2,
AURYD2FH3FUOQ:3CFJTT4SXUYVSGP6ZPMMOO7TWJNI7Y,1459782216463,English,5,full,band,neither P nor Q,neither full nor empty,stage,no one,sold out,0.4986382240440712,0.269,1,30332,7,2,
AURYD2FH3FUOQ:3CFJTT4SXUYVSGP6ZPMMOO7TWJNI7Y,1459782230422,English,6,hot,bath,neither P nor not-P,neither hot nor not hot,stage,extremely cold,extremely hot,0.875458873799178,0.414,1,13949,7,2,
A3MPS5TX2EWIKD:3DHE4R9OCXJAAOM53P5O7LD56RYG2F,1459790682182,English,1,tall,US male,P and not-P,tall and not tall,individual,extremely short,extremely tall,0.17093305980202178,0.512,3,25797,6,5,
A3MPS5TX2EWIKD:3DHE4R9OCXJAAOM53P5O7LD56RYG2F,1459790695932,English,2,hot,bath,neither Q nor not-Q,neither cold nor not cold,stage,extremely cold,extremely hot,0.018072425206990816,0.521,2,13749,6,5,
A3MPS5TX2EWIKD:3DHE4R9OCXJAAOM53P5O7LD56RYG2F,1459790707233,English,3,full,band,neither P nor Q,neither full nor empty,stage,no one,sold out,0.5187668588936827,0.5,3,11298,6,5,
A3MPS5TX2EWIKD:3DHE4R9OCXJAAOM53P5O7LD56RYG2F,1459790721798,English,4,long,movie,Q and not-Q,short and not short,individual,extremely short,extremely long,0.9879757573426482,0.598,3,14563,6,5,
A3MPS5TX2EWIKD:3DHE4R9OCXJAAOM53P5O7LD56RYG2F,1459790733366,English,5,fast,car,neither P nor not-P,neither fast nor not fast,stage,extremely slow,extremely fast,0.6308902572960371,0.461,3,11567,6,5,
A3MPS5TX2EWIKD:3DHE4R9OCXJAAOM53P5O7LD56RYG2F,1459790750707,English,6,expensive,laptop,not-P ,not expensive,individual,almost nothing,an enormous amount,0.04271759742027603,0.219,6,17339,6,5,
ADNGPLE6CXFZX:3TMSXRD2X78ZIPU9ZQ9SO5PO89P1WX,1459797512710,English,1,expensive,laptop,neither Q nor not-Q,neither cheap nor not cheap,individual,almost nothing,an enormous amount,0.634493921060958,0.493,6,13635,8,0,
ADNGPLE6CXFZX:3TMSXRD2X78ZIPU9ZQ9SO5PO89P1WX,1459797532269,English,2,fast,car,P and not-P,fast and not fast,stage,extremely slow,extremely fast,0.4979323691963645,0.493,3,19558,8,0,
ADNGPLE6CXFZX:3TMSXRD2X78ZIPU9ZQ9SO5PO89P1WX,1459797549290,English,3,hot,bath,Q,cold,stage,extremely cold,extremely hot,0.07142498593119462,0.063,5,17017,8,0,
ADNGPLE6CXFZX:3TMSXRD2X78ZIPU9ZQ9SO5PO89P1WX,1459797557385,English,4,long,movie,neither P nor Q,neither long nor short,individual,extremely short,extremely long,0.0905283301133124,0.496,5,8094,8,0,
ADNGPLE6CXFZX:3TMSXRD2X78ZIPU9ZQ9SO5PO89P1WX,1459797564121,English,5,tall,US male,not-Q,not short,individual,extremely short,extremely tall,0.2502946136572035,0.698,5,6735,8,0,
ADNGPLE6CXFZX:3TMSXRD2X78ZIPU9ZQ9SO5PO89P1WX,1459797577797,English,6,full,band,P,full,stage,no one,sold out,0.4807331406863794,0.857,6,13670,8,0,
A2BICWCPAW5N7O:31LVTDXBL8I700HRT6H5LLQLE2PLRY,1459836850001,english,1,fast,car,Q,slow,stage,extremely slow,extremely fast,0.39882248242141416,0.177,7,23926,2,0,
A2BICWCPAW5N7O:31LVTDXBL8I700HRT6H5LLQLE2PLRY,1459836864260,english,2,tall,US male,P,tall,individual,extremely short,extremely tall,0.2585214154339863,0.762,6,14255,2,0,
A2BICWCPAW5N7O:31LVTDXBL8I700HRT6H5LLQLE2PLRY,1459836877303,english,3,expensive,laptop,not-P ,not expensive,individual,almost nothing,an enormous amount,0.37771297638800316,0.45,3,13041,2,0,
A2BICWCPAW5N7O:31LVTDXBL8I700HRT6H5LLQLE2PLRY,1459836894543,english,4,hot,bath,neither Q nor not-Q,neither cold nor not cold,stage,extremely cold,extremely hot,0.3114257222257859,0.506,5,17238,2,0,
A2BICWCPAW5N7O:31LVTDXBL8I700HRT6H5LLQLE2PLRY,1459836914122,english,5,full,band,neither P nor Q,neither full nor empty,stage,no one,sold out,0.9680455108866015,0.455,2,19577,2,0,
A2BICWCPAW5N7O:31LVTDXBL8I700HRT6H5LLQLE2PLRY,1459836924513,english,6,long,movie,neither P nor not-P,neither long nor not long,individual,extremely short,extremely long,0.4457303441471503,0.492,2,10389,2,0,
A2GR3333S2F53G:3NLZY2D53QX7OZ2RGRS5GVGGIE3QLE,1459792968661,English,1,hot,bath,not-Q,not cold,stage,extremely cold,extremely hot,0.8227238447864975,0.657,3,21115,7,2,Thanks for allowing me to participate.
A2GR3333S2F53G:3NLZY2D53QX7OZ2RGRS5GVGGIE3QLE,1459792983543,English,2,long,movie,P,long,individual,extremely short,extremely long,0.2672141886537438,0.627,5,14879,7,2,Thanks for allowing me to participate.
A2GR3333S2F53G:3NLZY2D53QX7OZ2RGRS5GVGGIE3QLE,1459792998608,English,3,tall,US male,not-P ,not tall,individual,extremely short,extremely tall,0.13444685245502308,0.507,3,15064,7,2,Thanks for allowing me to participate.
A2GR3333S2F53G:3NLZY2D53QX7OZ2RGRS5GVGGIE3QLE,1459793018129,English,4,expensive,laptop,neither P nor not-P,neither expensive nor not expensive,individual,almost nothing,an enormous amount,0.8155980562713001,0.574,4,19521,7,2,Thanks for allowing me to participate.
A2GR3333S2F53G:3NLZY2D53QX7OZ2RGRS5GVGGIE3QLE,1459793053547,English,5,full,band,P and not-P,full and not full,stage,no one,sold out,0.6066596717801152,0.785,2,35417,7,2,Thanks for allowing me to participate.
A2GR3333S2F53G:3NLZY2D53QX7OZ2RGRS5GVGGIE3QLE,1459793068103,English,6,fast,car,Q and not-Q,slow and not slow,stage,extremely slow,extremely fast,0.18600960366256114,0.465,3,14555,7,2,Thanks for allowing me to participate.
A3FO0AK3PG8ZDK:3N4BPTXIO90OWMRQC009BW0QWYAKUE,1459782925738,English,1,full,band,Q,empty,stage,no one,sold out,0.8231161739017433,0.046,7,19731,8,0,None
A3FO0AK3PG8ZDK:3N4BPTXIO90OWMRQC009BW0QWYAKUE,1459782937121,English,2,fast,car,not-P ,not fast,stage,extremely slow,extremely fast,0.7929833619604016,0.496,5,11375,8,0,None
A3FO0AK3PG8ZDK:3N4BPTXIO90OWMRQC009BW0QWYAKUE,1459782947343,English,3,hot,bath,neither Q nor not-Q,neither cold nor not cold,stage,extremely cold,extremely hot,0.8959652588087867,0.51,3,10214,8,0,None
A3FO0AK3PG8ZDK:3N4BPTXIO90OWMRQC009BW0QWYAKUE,1459782954252,English,4,long,movie,neither P nor Q,neither long nor short,individual,extremely short,extremely long,0.17203437707173963,0.533,4,6901,8,0,None
A3FO0AK3PG8ZDK:3N4BPTXIO90OWMRQC009BW0QWYAKUE,1459782963669,English,5,expensive,laptop,neither P nor not-P,neither expensive nor not expensive,individual,almost nothing,an enormous amount,0.6876886414285774,0.514,4,9410,8,0,None
A3FO0AK3PG8ZDK:3N4BPTXIO90OWMRQC009BW0QWYAKUE,1459782973075,English,6,tall,US male,not-Q,not short,individual,extremely short,extremely tall,0.4345040831588982,0.241,5,9398,8,0,None
A2QKF81YI2ORRM:3EICBYG6454XZ8488OFXGBE7A93JC4,1459781038470,English,1,full,band,P,full,stage,no one,sold out,0.004624444441223119,1.0,4,16329,6,0,"The wording for some of the scenarios were a bit strange. Instead of saying full and not full, for example, you could say neither full nor empty."
A2QKF81YI2ORRM:3EICBYG6454XZ8488OFXGBE7A93JC4,1459781048027,English,2,tall,US male,not-P ,not tall,individual,extremely short,extremely tall,0.5858476591172959,0.335,6,9550,6,0,"The wording for some of the scenarios were a bit strange. Instead of saying full and not full, for example, you could say neither full nor empty."
A2QKF81YI2ORRM:3EICBYG6454XZ8488OFXGBE7A93JC4,1459781058865,English,3,fast,car,P and not-P,fast and not fast,stage,extremely slow,extremely fast,0.9322516933075871,0.465,1,10834,6,0,"The wording for some of the scenarios were a bit strange. Instead of saying full and not full, for example, you could say neither full nor empty."
A2QKF81YI2ORRM:3EICBYG6454XZ8488OFXGBE7A93JC4,1459781069942,English,4,long,movie,Q,short,individual,extremely short,extremely long,0.7381289954033958,0.326,6,11074,6,0,"The wording for some of the scenarios were a bit strange. Instead of saying full and not full, for example, you could say neither full nor empty."
A2QKF81YI2ORRM:3EICBYG6454XZ8488OFXGBE7A93JC4,1459781079722,English,5,expensive,laptop,Q and not-Q,cheap and not cheap,individual,almost nothing,an enormous amount,0.21982360671565582,0.382,1,9775,6,0,"The wording for some of the scenarios were a bit strange. Instead of saying full and not full, for example, you could say neither full nor empty."
A2QKF81YI2ORRM:3EICBYG6454XZ8488OFXGBE7A93JC4,1459781094516,English,6,hot,bath,not-Q,not cold,stage,extremely cold,extremely hot,0.6826971773718189,0.634,4,14789,6,0,"The wording for some of the scenarios were a bit strange. Instead of saying full and not full, for example, you could say neither full nor empty."
