id,itemTime,language,trial,antonymPair,scenarioLabel,predicateType,labelLower,labelHigher,expressionLabel1,expression1,expressionLabel2,expression2,expressionLabel3,expression3,expressionLabel4,expression4,expressionLabel5,expression5,expressionLabel6,expression6,expressionLabel7,expression7,answer1,answer2,answer3,answer4,answer5,answer6,answer7,RT,engagement,difficulty,comments
A28ZPY6D5AS7GZ:33CID571051FHYWPIGG93NN59Y03LO,1460389855539,English,1,hot,bath,stage,extremely cold,extremely hot,neither Q nor not-Q,neither cold nor not cold,not-Q,not cold,neither P nor not-P,neither hot nor not hot,neither P nor Q,neither hot nor cold,P,hot,Q,cold,not-P ,not hot,6,8,6,6,9,2,4,56416,4,4,No comments
A28ZPY6D5AS7GZ:33CID571051FHYWPIGG93NN59Y03LO,1460389884424,English,2,full,band,stage,no one,sold out,not-Q,not empty,not-P ,not full,neither P nor not-P,neither full nor not full,neither P nor Q,neither full nor empty,P,full,neither Q nor not-Q,neither empty nor not empty,Q,empty,8,4,6,6,10,6,2,28850,4,4,No comments
A28ZPY6D5AS7GZ:33CID571051FHYWPIGG93NN59Y03LO,1460389905044,English,3,fast,car,stage,extremely slow,extremely fast,P,fast,neither P nor Q,neither fast nor slow,Q,slow,neither P nor not-P,neither fast nor not fast,neither Q nor not-Q,neither slow nor not slow,not-P ,not fast,not-Q,not slow,9,6,3,6,6,5,7,20588,4,4,No comments
A28ZPY6D5AS7GZ:33CID571051FHYWPIGG93NN59Y03LO,1460389919800,English,4,tall,US male,individual,extremely short,extremely tall,not-Q,not short,neither P nor not-P,neither tall nor not tall,neither P nor Q,neither tall nor short,not-P ,not tall,Q,short,P,tall,neither Q nor not-Q,neither short nor not short,8,6,6,4,3,8,6,14733,4,4,No comments
A28ZPY6D5AS7GZ:33CID571051FHYWPIGG93NN59Y03LO,1460389935807,English,5,long,movie,individual,extremely short,extremely long,P,long,neither Q nor not-Q,neither short nor not short,Q,short,not-P ,not long,neither P nor Q,neither long nor short,neither P nor not-P,neither long nor not long,not-Q,not short,9,6,3,4,5,5,8,15990,4,4,No comments
A28ZPY6D5AS7GZ:33CID571051FHYWPIGG93NN59Y03LO,1460389952119,English,6,expensive,laptop,individual,almost nothing,an enormous amount,P,expensive,neither P nor not-P,neither expensive nor not expensive,neither Q nor not-Q,neither cheap nor not cheap,not-P ,not expensive,not-Q,not cheap,neither P nor Q,neither expensive nor cheap,Q,cheap,9,6,5,3,8,6,2,16296,4,4,No comments
A2OS0VCSQLU3HE:3K5TEWLKGWJX36Q2HNP2U2NWJEXVIX,1460388304575,English,1,full,band,stage,no one,sold out,neither P nor Q,neither full nor empty,neither P nor not-P,neither full nor not full,not-P ,not full,neither Q nor not-Q,neither empty nor not empty,Q,empty,P,full,not-Q,not empty,7,6,4,5,1,9,6,36030,4,4,No comments
A2OS0VCSQLU3HE:3K5TEWLKGWJX36Q2HNP2U2NWJEXVIX,1460388402610,English,2,long,movie,individual,extremely short,extremely long,Q,short,not-Q,not short,neither P nor not-P,neither long nor not long,not-P ,not long,P,long,neither P nor Q,neither long nor short,neither Q nor not-Q,neither short nor not short,2,7,6,4,9,6,6,98020,4,4,No comments
A2OS0VCSQLU3HE:3K5TEWLKGWJX36Q2HNP2U2NWJEXVIX,1460388419156,English,3,expensive,laptop,individual,almost nothing,an enormous amount,P,expensive,not-Q,not cheap,not-P ,not expensive,neither P nor Q,neither expensive nor cheap,neither Q nor not-Q,neither cheap nor not cheap,neither P nor not-P,neither expensive nor not expensive,Q,cheap,9,8,4,6,6,6,2,16531,4,4,No comments
A2OS0VCSQLU3HE:3K5TEWLKGWJX36Q2HNP2U2NWJEXVIX,1460388490359,English,4,fast,car,stage,extremely slow,extremely fast,neither Q nor not-Q,neither slow nor not slow,P,fast,neither P nor not-P,neither fast nor not fast,not-Q,not slow,not-P ,not fast,neither P nor Q,neither fast nor slow,Q,slow,6,9,5,8,4,6,2,71184,4,4,No comments
A2OS0VCSQLU3HE:3K5TEWLKGWJX36Q2HNP2U2NWJEXVIX,1460388508443,English,5,hot,bath,stage,extremely cold,extremely hot,neither Q nor not-Q,neither cold nor not cold,not-Q,not cold,Q,cold,neither P nor not-P,neither hot nor not hot,P,hot,not-P ,not hot,neither P nor Q,neither hot nor cold,6,7,3,7,9,4,6,18070,4,4,No comments
A2OS0VCSQLU3HE:3K5TEWLKGWJX36Q2HNP2U2NWJEXVIX,1460388524702,English,6,tall,US male,individual,extremely short,extremely tall,Q,short,not-P ,not tall,neither Q nor not-Q,neither short nor not short,P,tall,not-Q,not short,neither P nor Q,neither tall nor short,neither P nor not-P,neither tall nor not tall,3,5,6,9,7,6,6,16251,4,4,No comments
A19S41PZQOMX3H:378XPAWRUDLDBIN46SY6YF9JY4WIAJ,1460387367069,English,1,long,movie,individual,extremely short,extremely long,P,long,neither P nor Q,neither long nor short,neither P nor not-P,neither long nor not long,Q,short,neither Q nor not-Q,neither short nor not short,not-P ,not long,not-Q,not short,9,6,8,1,6,2,9,73552,8,2,no
A19S41PZQOMX3H:378XPAWRUDLDBIN46SY6YF9JY4WIAJ,1460387416469,English,2,expensive,laptop,individual,almost nothing,an enormous amount,not-P ,not expensive,neither P nor Q,neither expensive nor cheap,P,expensive,Q,cheap,neither Q nor not-Q,neither cheap nor not cheap,not-Q,not cheap,neither P nor not-P,neither expensive nor not expensive,3,6,10,1,6,8,6,49373,8,2,no
A19S41PZQOMX3H:378XPAWRUDLDBIN46SY6YF9JY4WIAJ,1460387464663,English,3,full,band,stage,no one,sold out,Q,empty,P,full,not-Q,not empty,neither Q nor not-Q,neither empty nor not empty,neither P nor not-P,neither full nor not full,not-P ,not full,neither P nor Q,neither full nor empty,1,10,6,5,7,7,5,48167,8,2,no
A19S41PZQOMX3H:378XPAWRUDLDBIN46SY6YF9JY4WIAJ,1460387646070,English,4,hot,bath,stage,extremely cold,extremely hot,neither Q nor not-Q,neither cold nor not cold,neither P nor Q,neither hot nor cold,neither P nor not-P,neither hot nor not hot,Q,cold,not-Q,not cold,P,hot,not-P ,not hot,7,6,6,1,8,10,4,181374,8,2,no
A19S41PZQOMX3H:378XPAWRUDLDBIN46SY6YF9JY4WIAJ,1460387674860,English,5,tall,US male,individual,extremely short,extremely tall,P,tall,Q,short,neither P nor Q,neither tall nor short,not-Q,not short,neither P nor not-P,neither tall nor not tall,not-P ,not tall,neither Q nor not-Q,neither short nor not short,10,3,6,8,6,3,6,28767,8,2,no
A19S41PZQOMX3H:378XPAWRUDLDBIN46SY6YF9JY4WIAJ,1460387705121,English,6,fast,car,stage,extremely slow,extremely fast,neither P nor Q,neither fast nor slow,not-Q,not slow,neither Q nor not-Q,neither slow nor not slow,neither P nor not-P,neither fast nor not fast,Q,slow,not-P ,not fast,P,fast,6,8,6,6,1,2,10,30232,8,2,no
A3DDFEQ9K0H93C:3FIJLY1B6VC0OVRGU3AILDLMGQDPF7,1459949264759,english,1,fast,car,stage,extremely slow,extremely fast,not-P ,not fast,neither P nor Q,neither fast nor slow,neither Q nor not-Q,neither slow nor not slow,neither P nor not-P,neither fast nor not fast,not-Q,not slow,P,fast,Q,slow,3,6,6,6,8,9,2,44058,3,1,nope
A3DDFEQ9K0H93C:3FIJLY1B6VC0OVRGU3AILDLMGQDPF7,1459949284042,english,2,hot,bath,stage,extremely cold,extremely hot,not-P ,not hot,neither P nor Q,neither hot nor cold,neither Q nor not-Q,neither cold nor not cold,neither P nor not-P,neither hot nor not hot,not-Q,not cold,P,hot,Q,cold,4,6,6,6,8,9,2,19265,3,1,nope
A3DDFEQ9K0H93C:3FIJLY1B6VC0OVRGU3AILDLMGQDPF7,1459949303881,english,3,long,movie,individual,extremely short,extremely long,not-P ,not long,neither P nor Q,neither long nor short,neither Q nor not-Q,neither short nor not short,neither P nor not-P,neither long nor not long,not-Q,not short,P,long,Q,short,4,6,6,6,8,9,3,19822,3,1,nope
A3DDFEQ9K0H93C:3FIJLY1B6VC0OVRGU3AILDLMGQDPF7,1459949318318,english,4,expensive,laptop,individual,almost nothing,an enormous amount,not-P ,not expensive,neither P nor Q,neither expensive nor cheap,neither Q nor not-Q,neither cheap nor not cheap,neither P nor not-P,neither expensive nor not expensive,not-Q,not cheap,P,expensive,Q,cheap,4,6,6,6,8,9,3,14420,3,1,nope
A3DDFEQ9K0H93C:3FIJLY1B6VC0OVRGU3AILDLMGQDPF7,1459949350060,english,5,full,band,stage,no one,sold out,not-P ,not full,neither P nor Q,neither full nor empty,neither Q nor not-Q,neither empty nor not empty,neither P nor not-P,neither full nor not full,not-Q,not empty,P,full,Q,empty,4,6,6,6,8,10,2,31733,3,1,nope
A3DDFEQ9K0H93C:3FIJLY1B6VC0OVRGU3AILDLMGQDPF7,1459949365185,english,6,tall,US male,individual,extremely short,extremely tall,not-P ,not tall,neither P nor Q,neither tall nor short,neither Q nor not-Q,neither short nor not short,neither P nor not-P,neither tall nor not tall,not-Q,not short,P,tall,Q,short,5,6,6,6,8,9,3,15114,3,1,nope
A13VIJ7G997ZCY:3R8YZBNQ9IQ89EDPCXRVXQYFO67Q73,1460387390333,English,1,long,movie,individual,extremely short,extremely long,not-Q,not short,not-P ,not long,neither Q nor not-Q,neither short nor not short,P,long,Q,short,neither P nor Q,neither long nor short,neither P nor not-P,neither long nor not long,8,4,6,9,3,6,7,31715,5,5,
A13VIJ7G997ZCY:3R8YZBNQ9IQ89EDPCXRVXQYFO67Q73,1460387437813,English,2,full,band,stage,no one,sold out,neither Q nor not-Q,neither empty nor not empty,neither P nor not-P,neither full nor not full,not-P ,not full,neither P nor Q,neither full nor empty,Q,empty,not-Q,not empty,P,full,4,8,6,7,3,6,9,47470,5,5,
A13VIJ7G997ZCY:3R8YZBNQ9IQ89EDPCXRVXQYFO67Q73,1460387472260,English,3,tall,US male,individual,extremely short,extremely tall,neither P nor not-P,neither tall nor not tall,not-Q,not short,neither Q nor not-Q,neither short nor not short,P,tall,Q,short,not-P ,not tall,neither P nor Q,neither tall nor short,8,7,5,9,2,5,6,34440,5,5,
A13VIJ7G997ZCY:3R8YZBNQ9IQ89EDPCXRVXQYFO67Q73,1460387540998,English,4,fast,car,stage,extremely slow,extremely fast,not-Q,not slow,not-P ,not fast,Q,slow,neither Q nor not-Q,neither slow nor not slow,P,fast,neither P nor not-P,neither fast nor not fast,neither P nor Q,neither fast nor slow,7,5,3,6,9,7,6,68728,5,5,
A13VIJ7G997ZCY:3R8YZBNQ9IQ89EDPCXRVXQYFO67Q73,1460387581276,English,5,expensive,laptop,individual,almost nothing,an enormous amount,Q,cheap,P,expensive,neither P nor not-P,neither expensive nor not expensive,neither P nor Q,neither expensive nor cheap,not-Q,not cheap,neither Q nor not-Q,neither cheap nor not cheap,not-P ,not expensive,4,8,6,7,8,5,3,40268,5,5,
A13VIJ7G997ZCY:3R8YZBNQ9IQ89EDPCXRVXQYFO67Q73,1460387609114,English,6,hot,bath,stage,extremely cold,extremely hot,P,hot,not-Q,not cold,neither Q nor not-Q,neither cold nor not cold,not-P ,not hot,neither P nor not-P,neither hot nor not hot,neither P nor Q,neither hot nor cold,Q,cold,9,6,5,5,7,6,4,27830,5,5,
A2DPKKEEW2I6QK:3JMSRU9HQJ2LN1OGL4ZB9NP4RLQVEO,1460387472899,english,1,hot,bath,stage,extremely cold,extremely hot,Q,cold,not-P ,not hot,neither P nor not-P,neither hot nor not hot,neither P nor Q,neither hot nor cold,neither Q nor not-Q,neither cold nor not cold,P,hot,not-Q,not cold,6,8,7,5,6,9,8,8581,2,2,
A2DPKKEEW2I6QK:3JMSRU9HQJ2LN1OGL4ZB9NP4RLQVEO,1460387491210,english,2,fast,car,stage,extremely slow,extremely fast,not-Q,not slow,neither P nor Q,neither fast nor slow,P,fast,neither Q nor not-Q,neither slow nor not slow,not-P ,not fast,neither P nor not-P,neither fast nor not fast,Q,slow,7,6,8,5,6,6,8,18294,2,2,
A2DPKKEEW2I6QK:3JMSRU9HQJ2LN1OGL4ZB9NP4RLQVEO,1460387503508,english,3,expensive,laptop,individual,almost nothing,an enormous amount,neither Q nor not-Q,neither cheap nor not cheap,P,expensive,neither P nor Q,neither expensive nor cheap,not-P ,not expensive,neither P nor not-P,neither expensive nor not expensive,Q,cheap,not-Q,not cheap,4,5,7,5,4,3,9,12287,2,2,
A2DPKKEEW2I6QK:3JMSRU9HQJ2LN1OGL4ZB9NP4RLQVEO,1460387522772,english,4,long,movie,individual,extremely short,extremely long,neither P nor not-P,neither long nor not long,not-Q,not short,not-P ,not long,neither Q nor not-Q,neither short nor not short,P,long,neither P nor Q,neither long nor short,Q,short,6,7,3,6,8,6,2,19249,2,2,
A2DPKKEEW2I6QK:3JMSRU9HQJ2LN1OGL4ZB9NP4RLQVEO,1460387544725,english,5,tall,US male,individual,extremely short,extremely tall,neither P nor not-P,neither tall nor not tall,not-Q,not short,P,tall,neither P nor Q,neither tall nor short,not-P ,not tall,neither Q nor not-Q,neither short nor not short,Q,short,6,8,9,6,3,6,2,21942,2,2,
A2DPKKEEW2I6QK:3JMSRU9HQJ2LN1OGL4ZB9NP4RLQVEO,1460387572833,english,6,full,band,stage,no one,sold out,neither P nor Q,neither full nor empty,neither P nor not-P,neither full nor not full,Q,empty,neither Q nor not-Q,neither empty nor not empty,not-Q,not empty,P,full,not-P ,not full,6,6,2,6,9,10,1,28099,2,2,
A110KENBXU7SUJ:35LDD5557BC5JEMH3Y9NKMJWJHJMKA,1459950557395,english,1,full,band,stage,no one,sold out,neither P nor Q,neither full nor empty,not-P ,not full,Q,empty,P,full,not-Q,not empty,neither P nor not-P,neither full nor not full,neither Q nor not-Q,neither empty nor not empty,6,7,1,10,3,6,6,24208,5,4,
A110KENBXU7SUJ:35LDD5557BC5JEMH3Y9NKMJWJHJMKA,1459950586845,english,2,hot,bath,stage,extremely cold,extremely hot,neither P nor Q,neither hot nor cold,not-P ,not hot,Q,cold,P,hot,not-Q,not cold,neither P nor not-P,neither hot nor not hot,neither Q nor not-Q,neither cold nor not cold,6,7,1,10,3,6,6,29442,5,4,
A110KENBXU7SUJ:35LDD5557BC5JEMH3Y9NKMJWJHJMKA,1459950606474,english,3,expensive,laptop,individual,almost nothing,an enormous amount,neither P nor Q,neither expensive nor cheap,not-P ,not expensive,Q,cheap,P,expensive,not-Q,not cheap,neither P nor not-P,neither expensive nor not expensive,neither Q nor not-Q,neither cheap nor not cheap,6,5,3,10,7,6,6,19624,5,4,
A110KENBXU7SUJ:35LDD5557BC5JEMH3Y9NKMJWJHJMKA,1459950633347,english,4,long,movie,individual,extremely short,extremely long,neither P nor Q,neither long nor short,not-P ,not long,Q,short,P,long,not-Q,not short,neither P nor not-P,neither long nor not long,neither Q nor not-Q,neither short nor not short,6,4,2,9,5,6,6,26866,5,4,
A110KENBXU7SUJ:35LDD5557BC5JEMH3Y9NKMJWJHJMKA,1459950651140,english,5,tall,US male,individual,extremely short,extremely tall,neither P nor Q,neither tall nor short,not-P ,not tall,Q,short,P,tall,not-Q,not short,neither P nor not-P,neither tall nor not tall,neither Q nor not-Q,neither short nor not short,6,4,1,10,4,6,7,17785,5,4,
A110KENBXU7SUJ:35LDD5557BC5JEMH3Y9NKMJWJHJMKA,1459950670316,english,6,fast,car,stage,extremely slow,extremely fast,neither P nor Q,neither fast nor slow,not-P ,not fast,Q,slow,P,fast,not-Q,not slow,neither P nor not-P,neither fast nor not fast,neither Q nor not-Q,neither slow nor not slow,5,4,1,10,3,6,6,19170,5,4,
A3HBMPB74FWI1:3TU5ZICBRE9C9SI8M2J1BQUAZQDQ8Q,1460388186813,English,1,long,movie,individual,extremely short,extremely long,neither P nor Q,neither long nor short,Q,short,not-Q,not short,P,long,neither Q nor not-Q,neither short nor not short,neither P nor not-P,neither long nor not long,not-P ,not long,10,8,7,2,7,9,9,7354,6,3,
A3HBMPB74FWI1:3TU5ZICBRE9C9SI8M2J1BQUAZQDQ8Q,1460388193679,English,2,hot,bath,stage,extremely cold,extremely hot,P,hot,not-P ,not hot,neither P nor not-P,neither hot nor not hot,not-Q,not cold,Q,cold,neither Q nor not-Q,neither cold nor not cold,neither P nor Q,neither hot nor cold,10,8,9,10,6,10,4,6857,6,3,
A3HBMPB74FWI1:3TU5ZICBRE9C9SI8M2J1BQUAZQDQ8Q,1460388199174,English,3,tall,US male,individual,extremely short,extremely tall,neither Q nor not-Q,neither short nor not short,Q,short,not-Q,not short,P,tall,neither P nor not-P,neither tall nor not tall,neither P nor Q,neither tall nor short,not-P ,not tall,3,10,5,9,4,5,5,5488,6,3,
A3HBMPB74FWI1:3TU5ZICBRE9C9SI8M2J1BQUAZQDQ8Q,1460388204650,English,4,expensive,laptop,individual,almost nothing,an enormous amount,neither P nor not-P,neither expensive nor not expensive,Q,cheap,not-Q,not cheap,neither Q nor not-Q,neither cheap nor not cheap,not-P ,not expensive,neither P nor Q,neither expensive nor cheap,P,expensive,7,5,10,8,6,8,9,5468,6,3,
A3HBMPB74FWI1:3TU5ZICBRE9C9SI8M2J1BQUAZQDQ8Q,1460388209926,English,5,full,band,stage,no one,sold out,P,full,neither Q nor not-Q,neither empty nor not empty,not-Q,not empty,not-P ,not full,neither P nor not-P,neither full nor not full,Q,empty,neither P nor Q,neither full nor empty,2,10,8,5,10,9,7,5265,6,3,
A3HBMPB74FWI1:3TU5ZICBRE9C9SI8M2J1BQUAZQDQ8Q,1460388216450,English,6,fast,car,stage,extremely slow,extremely fast,neither P nor not-P,neither fast nor not fast,Q,slow,neither Q nor not-Q,neither slow nor not slow,neither P nor Q,neither fast nor slow,not-P ,not fast,P,fast,not-Q,not slow,6,8,10,4,8,9,9,6514,6,3,
A248TO3PTV0K5P:39K0FND3AINZ71DVR7WYQ8G0FDGAMR,1460389722202,English,1,hot,bath,stage,extremely cold,extremely hot,P,hot,neither P nor Q,neither hot nor cold,neither P nor not-P,neither hot nor not hot,neither Q nor not-Q,neither cold nor not cold,not-P ,not hot,Q,cold,not-Q,not cold,8,6,6,6,3,2,9,30996,7,1,none
A248TO3PTV0K5P:39K0FND3AINZ71DVR7WYQ8G0FDGAMR,1460389757281,English,2,long,movie,individual,extremely short,extremely long,not-Q,not short,Q,short,not-P ,not long,neither P nor not-P,neither long nor not long,neither Q nor not-Q,neither short nor not short,neither P nor Q,neither long nor short,P,long,9,3,3,6,6,6,8,35048,7,1,none
A248TO3PTV0K5P:39K0FND3AINZ71DVR7WYQ8G0FDGAMR,1460389781423,English,3,fast,car,stage,extremely slow,extremely fast,not-Q,not slow,Q,slow,neither P nor Q,neither fast nor slow,neither Q nor not-Q,neither slow nor not slow,P,fast,not-P ,not fast,neither P nor not-P,neither fast nor not fast,9,3,6,6,8,3,6,24141,7,1,none
A248TO3PTV0K5P:39K0FND3AINZ71DVR7WYQ8G0FDGAMR,1460389803701,English,4,full,band,stage,no one,sold out,neither P nor Q,neither full nor empty,P,full,neither P nor not-P,neither full nor not full,neither Q nor not-Q,neither empty nor not empty,not-Q,not empty,not-P ,not full,Q,empty,6,9,6,6,9,4,1,22278,7,1,none
A248TO3PTV0K5P:39K0FND3AINZ71DVR7WYQ8G0FDGAMR,1460389833032,English,5,expensive,laptop,individual,almost nothing,an enormous amount,P,expensive,not-P ,not expensive,neither P nor Q,neither expensive nor cheap,neither P nor not-P,neither expensive nor not expensive,not-Q,not cheap,Q,cheap,neither Q nor not-Q,neither cheap nor not cheap,9,3,6,6,9,3,6,29331,7,1,none
A248TO3PTV0K5P:39K0FND3AINZ71DVR7WYQ8G0FDGAMR,1460389857204,English,6,tall,US male,individual,extremely short,extremely tall,P,tall,neither P nor not-P,neither tall nor not tall,neither Q nor not-Q,neither short nor not short,Q,short,not-Q,not short,neither P nor Q,neither tall nor short,not-P ,not tall,9,6,6,3,9,6,3,24170,7,1,none
A2P065E9CYMYJL:3HUTX6F6VVVY2133R8IWCUM7YP32OR,1460388225240,English,1,long,movie,individual,extremely short,extremely long,Q,short,not-Q,not short,neither P nor Q,neither long nor short,P,long,neither Q nor not-Q,neither short nor not short,not-P ,not long,neither P nor not-P,neither long nor not long,3,9,6,9,6,3,6,18659,8,4,Language is such an uncharacteristically odd thing when isolated unto phrases like this.
A2P065E9CYMYJL:3HUTX6F6VVVY2133R8IWCUM7YP32OR,1460388245781,English,2,tall,US male,individual,extremely short,extremely tall,not-Q,not short,P,tall,neither P nor Q,neither tall nor short,not-P ,not tall,neither Q nor not-Q,neither short nor not short,Q,short,neither P nor not-P,neither tall nor not tall,9,9,6,3,6,2,6,20532,8,4,Language is such an uncharacteristically odd thing when isolated unto phrases like this.
A2P065E9CYMYJL:3HUTX6F6VVVY2133R8IWCUM7YP32OR,1460388267140,English,3,hot,bath,stage,extremely cold,extremely hot,neither P nor Q,neither hot nor cold,P,hot,not-P ,not hot,Q,cold,neither P nor not-P,neither hot nor not hot,neither Q nor not-Q,neither cold nor not cold,not-Q,not cold,6,9,5,3,7,5,8,21350,8,4,Language is such an uncharacteristically odd thing when isolated unto phrases like this.
A2P065E9CYMYJL:3HUTX6F6VVVY2133R8IWCUM7YP32OR,1460388282913,English,4,expensive,laptop,individual,almost nothing,an enormous amount,not-P ,not expensive,neither P nor not-P,neither expensive nor not expensive,Q,cheap,P,expensive,neither P nor Q,neither expensive nor cheap,not-Q,not cheap,neither Q nor not-Q,neither cheap nor not cheap,3,6,2,9,6,8,6,15763,8,4,Language is such an uncharacteristically odd thing when isolated unto phrases like this.
A2P065E9CYMYJL:3HUTX6F6VVVY2133R8IWCUM7YP32OR,1460388302366,English,5,full,band,stage,no one,sold out,Q,empty,neither P nor Q,neither full nor empty,not-P ,not full,P,full,neither Q nor not-Q,neither empty nor not empty,not-Q,not empty,neither P nor not-P,neither full nor not full,1,6,3,10,5,8,6,19443,8,4,Language is such an uncharacteristically odd thing when isolated unto phrases like this.
A2P065E9CYMYJL:3HUTX6F6VVVY2133R8IWCUM7YP32OR,1460388317788,English,6,fast,car,stage,extremely slow,extremely fast,P,fast,Q,slow,not-P ,not fast,neither Q nor not-Q,neither slow nor not slow,not-Q,not slow,neither P nor not-P,neither fast nor not fast,neither P nor Q,neither fast nor slow,9,2,3,5,8,6,6,15411,8,4,Language is such an uncharacteristically odd thing when isolated unto phrases like this.
A3MEXVF979S444:31HQ4X3T3TIJ1FH48VHABVVH1EXSL3,1460389602457,english,1,full,band,stage,no one,sold out,not-P ,not full,neither Q nor not-Q,neither empty nor not empty,P,full,neither P nor not-P,neither full nor not full,not-Q,not empty,neither P nor Q,neither full nor empty,Q,empty,9,8,10,6,5,5,1,26992,5,4,
A3MEXVF979S444:31HQ4X3T3TIJ1FH48VHABVVH1EXSL3,1460389621064,english,2,fast,car,stage,extremely slow,extremely fast,P,fast,neither Q nor not-Q,neither slow nor not slow,neither P nor Q,neither fast nor slow,neither P nor not-P,neither fast nor not fast,not-P ,not fast,Q,slow,not-Q,not slow,7,4,6,8,3,2,6,18595,5,4,
A3MEXVF979S444:31HQ4X3T3TIJ1FH48VHABVVH1EXSL3,1460389637051,english,3,tall,US male,individual,extremely short,extremely tall,not-Q,not short,P,tall,neither P nor not-P,neither tall nor not tall,neither Q nor not-Q,neither short nor not short,Q,short,neither P nor Q,neither tall nor short,not-P ,not tall,6,9,7,4,3,6,6,15973,5,4,
A3MEXVF979S444:31HQ4X3T3TIJ1FH48VHABVVH1EXSL3,1460389652430,english,4,long,movie,individual,extremely short,extremely long,Q,short,P,long,neither P nor not-P,neither long nor not long,not-P ,not long,neither P nor Q,neither long nor short,not-Q,not short,neither Q nor not-Q,neither short nor not short,2,9,7,5,6,7,4,15365,5,4,
A3MEXVF979S444:31HQ4X3T3TIJ1FH48VHABVVH1EXSL3,1460389667713,english,5,expensive,laptop,individual,almost nothing,an enormous amount,neither P nor Q,neither expensive nor cheap,not-Q,not cheap,Q,cheap,P,expensive,not-P ,not expensive,neither P nor not-P,neither expensive nor not expensive,neither Q nor not-Q,neither cheap nor not cheap,6,8,2,9,7,7,6,15271,5,4,
A3MEXVF979S444:31HQ4X3T3TIJ1FH48VHABVVH1EXSL3,1460389684353,english,6,hot,bath,stage,extremely cold,extremely hot,neither P nor Q,neither hot nor cold,neither P nor not-P,neither hot nor not hot,not-Q,not cold,not-P ,not hot,neither Q nor not-Q,neither cold nor not cold,P,hot,Q,cold,6,7,7,4,7,8,3,16625,5,4,
A17J1CE7N49Z9D:33TIN5LC05ILWZS4I469O8SNHXL9YT,1459949281360,english,1,full,band,stage,no one,sold out,neither P nor not-P,neither full nor not full,neither P nor Q,neither full nor empty,not-P ,not full,P,full,Q,empty,not-Q,not empty,neither Q nor not-Q,neither empty nor not empty,8,8,8,8,8,8,8,40651,5,2,
A17J1CE7N49Z9D:33TIN5LC05ILWZS4I469O8SNHXL9YT,1459949292150,english,2,hot,bath,stage,extremely cold,extremely hot,neither P nor not-P,neither hot nor not hot,neither P nor Q,neither hot nor cold,not-P ,not hot,P,hot,Q,cold,not-Q,not cold,neither Q nor not-Q,neither cold nor not cold,7,7,7,7,7,7,7,10763,5,2,
A17J1CE7N49Z9D:33TIN5LC05ILWZS4I469O8SNHXL9YT,1459949301036,english,3,fast,car,stage,extremely slow,extremely fast,neither P nor not-P,neither fast nor not fast,neither P nor Q,neither fast nor slow,not-P ,not fast,P,fast,Q,slow,not-Q,not slow,neither Q nor not-Q,neither slow nor not slow,7,7,7,7,7,7,7,8867,5,2,
A17J1CE7N49Z9D:33TIN5LC05ILWZS4I469O8SNHXL9YT,1459949309556,english,4,tall,US male,individual,extremely short,extremely tall,neither P nor not-P,neither tall nor not tall,neither P nor Q,neither tall nor short,not-P ,not tall,P,tall,Q,short,not-Q,not short,neither Q nor not-Q,neither short nor not short,7,7,7,7,7,7,7,8502,5,2,
A17J1CE7N49Z9D:33TIN5LC05ILWZS4I469O8SNHXL9YT,1459949342899,english,5,expensive,laptop,individual,almost nothing,an enormous amount,neither P nor not-P,neither expensive nor not expensive,neither P nor Q,neither expensive nor cheap,not-P ,not expensive,P,expensive,Q,cheap,not-Q,not cheap,neither Q nor not-Q,neither cheap nor not cheap,7,7,7,7,7,7,7,33324,5,2,
A17J1CE7N49Z9D:33TIN5LC05ILWZS4I469O8SNHXL9YT,1459949353099,english,6,long,movie,individual,extremely short,extremely long,neither P nor not-P,neither long nor not long,neither P nor Q,neither long nor short,not-P ,not long,P,long,Q,short,not-Q,not short,neither Q nor not-Q,neither short nor not short,7,7,7,7,7,7,7,10183,5,2,
A1GZOEMTN2KYDA:3UXUOQ9OKF5GMY68N1U97QJAJGVA79,1459954736572,english,1,tall,US male,individual,extremely short,extremely tall,P,tall,Q,short,not-P ,not tall,neither P nor Q,neither tall nor short,neither P nor not-P,neither tall nor not tall,not-Q,not short,neither Q nor not-Q,neither short nor not short,6,3,3,7,6,9,6,13578,5,5,
A1GZOEMTN2KYDA:3UXUOQ9OKF5GMY68N1U97QJAJGVA79,1459954752598,english,2,fast,car,stage,extremely slow,extremely fast,P,fast,Q,slow,not-P ,not fast,neither P nor Q,neither fast nor slow,neither P nor not-P,neither fast nor not fast,not-Q,not slow,neither Q nor not-Q,neither slow nor not slow,8,1,4,6,7,8,6,16015,5,5,
A1GZOEMTN2KYDA:3UXUOQ9OKF5GMY68N1U97QJAJGVA79,1459954766623,english,3,full,band,stage,no one,sold out,P,full,Q,empty,not-P ,not full,neither P nor Q,neither full nor empty,neither P nor not-P,neither full nor not full,not-Q,not empty,neither Q nor not-Q,neither empty nor not empty,9,2,3,6,6,5,6,14014,5,5,
A1GZOEMTN2KYDA:3UXUOQ9OKF5GMY68N1U97QJAJGVA79,1459954776296,english,4,long,movie,individual,extremely short,extremely long,P,long,Q,short,not-P ,not long,neither P nor Q,neither long nor short,neither P nor not-P,neither long nor not long,not-Q,not short,neither Q nor not-Q,neither short nor not short,9,2,3,6,6,3,5,9663,5,5,
A1GZOEMTN2KYDA:3UXUOQ9OKF5GMY68N1U97QJAJGVA79,1459954787430,english,5,hot,bath,stage,extremely cold,extremely hot,P,hot,Q,cold,not-P ,not hot,neither P nor Q,neither hot nor cold,neither P nor not-P,neither hot nor not hot,not-Q,not cold,neither Q nor not-Q,neither cold nor not cold,9,2,5,6,6,9,7,11122,5,5,
A1GZOEMTN2KYDA:3UXUOQ9OKF5GMY68N1U97QJAJGVA79,1459954796592,english,6,expensive,laptop,individual,almost nothing,an enormous amount,P,expensive,Q,cheap,not-P ,not expensive,neither P nor Q,neither expensive nor cheap,neither P nor not-P,neither expensive nor not expensive,not-Q,not cheap,neither Q nor not-Q,neither cheap nor not cheap,10,1,6,6,6,8,7,9151,5,5,
A160HFSRDNT91E:39LNWE0K4V4XQR12CXFXYGLD4ZXUIZ,1459949755722,english,1,fast,car,stage,extremely slow,extremely fast,neither P nor not-P,neither fast nor not fast,not-P ,not fast,not-Q,not slow,P,fast,neither Q nor not-Q,neither slow nor not slow,neither P nor Q,neither fast nor slow,Q,slow,6,3,7,8,5,6,3,48803,8,8,
A160HFSRDNT91E:39LNWE0K4V4XQR12CXFXYGLD4ZXUIZ,1459949781779,english,2,expensive,laptop,individual,almost nothing,an enormous amount,neither P nor not-P,neither expensive nor not expensive,not-P ,not expensive,not-Q,not cheap,P,expensive,neither Q nor not-Q,neither cheap nor not cheap,neither P nor Q,neither expensive nor cheap,Q,cheap,6,3,8,9,6,6,3,26034,8,8,
A160HFSRDNT91E:39LNWE0K4V4XQR12CXFXYGLD4ZXUIZ,1459949811160,english,3,hot,bath,stage,extremely cold,extremely hot,neither P nor not-P,neither hot nor not hot,not-P ,not hot,not-Q,not cold,P,hot,neither Q nor not-Q,neither cold nor not cold,neither P nor Q,neither hot nor cold,Q,cold,7,5,7,8,6,6,3,29348,8,8,
A160HFSRDNT91E:39LNWE0K4V4XQR12CXFXYGLD4ZXUIZ,1459949946746,english,4,long,movie,individual,extremely short,extremely long,neither P nor not-P,neither long nor not long,not-P ,not long,not-Q,not short,P,long,neither Q nor not-Q,neither short nor not short,neither P nor Q,neither long nor short,Q,short,6,5,7,8,6,6,3,135564,8,8,
A160HFSRDNT91E:39LNWE0K4V4XQR12CXFXYGLD4ZXUIZ,1459949994806,english,5,full,band,stage,no one,sold out,neither P nor not-P,neither full nor not full,not-P ,not full,not-Q,not empty,P,full,neither Q nor not-Q,neither empty nor not empty,neither P nor Q,neither full nor empty,Q,empty,6,4,3,9,2,5,1,48019,8,8,
A160HFSRDNT91E:39LNWE0K4V4XQR12CXFXYGLD4ZXUIZ,1459950013930,english,6,tall,US male,individual,extremely short,extremely tall,neither P nor not-P,neither tall nor not tall,not-P ,not tall,not-Q,not short,P,tall,neither Q nor not-Q,neither short nor not short,neither P nor Q,neither tall nor short,Q,short,6,5,7,8,6,6,3,19090,8,8,
A1JQI98NY1RMNS:3KWTYT0871BIVDJTWZ42IKLPNUPL5U,1460387479384,english,1,tall,US male,individual,extremely short,extremely tall,not-Q,not short,not-P ,not tall,Q,short,neither Q nor not-Q,neither short nor not short,neither P nor Q,neither tall nor short,P,tall,neither P nor not-P,neither tall nor not tall,8,5,4,6,6,8,3,30772,10,1,
A1JQI98NY1RMNS:3KWTYT0871BIVDJTWZ42IKLPNUPL5U,1460387502056,english,2,long,movie,individual,extremely short,extremely long,neither P nor not-P,neither long nor not long,neither P nor Q,neither long nor short,not-Q,not short,neither Q nor not-Q,neither short nor not short,P,long,Q,short,not-P ,not long,3,6,8,8,8,4,4,22663,10,1,
A1JQI98NY1RMNS:3KWTYT0871BIVDJTWZ42IKLPNUPL5U,1460387533623,english,3,full,band,stage,no one,sold out,not-P ,not full,P,full,Q,empty,neither P nor not-P,neither full nor not full,neither Q nor not-Q,neither empty nor not empty,neither P nor Q,neither full nor empty,not-Q,not empty,6,10,1,4,7,6,6,31561,10,1,
A1JQI98NY1RMNS:3KWTYT0871BIVDJTWZ42IKLPNUPL5U,1460387552400,english,4,fast,car,stage,extremely slow,extremely fast,P,fast,neither P nor Q,neither fast nor slow,not-P ,not fast,neither P nor not-P,neither fast nor not fast,Q,slow,not-Q,not slow,neither Q nor not-Q,neither slow nor not slow,9,6,4,6,3,8,6,18769,10,1,
A1JQI98NY1RMNS:3KWTYT0871BIVDJTWZ42IKLPNUPL5U,1460387567956,english,5,hot,bath,stage,extremely cold,extremely hot,not-Q,not cold,not-P ,not hot,Q,cold,neither P nor Q,neither hot nor cold,neither P nor not-P,neither hot nor not hot,neither Q nor not-Q,neither cold nor not cold,P,hot,8,4,4,6,6,6,8,15550,10,1,
A1JQI98NY1RMNS:3KWTYT0871BIVDJTWZ42IKLPNUPL5U,1460387581929,english,6,expensive,laptop,individual,almost nothing,an enormous amount,Q,cheap,neither P nor not-P,neither expensive nor not expensive,not-P ,not expensive,not-Q,not cheap,P,expensive,neither Q nor not-Q,neither cheap nor not cheap,neither P nor Q,neither expensive nor cheap,4,6,4,8,8,6,6,13967,10,1,
A2541C8MY0BYV3:3WETL7AQWUG1F9T4QT02MYR8M0853T,1459949235964,english,1,expensive,laptop,individual,almost nothing,an enormous amount,neither P nor Q,neither expensive nor cheap,Q,cheap,P,expensive,not-Q,not cheap,neither Q nor not-Q,neither cheap nor not cheap,neither P nor not-P,neither expensive nor not expensive,not-P ,not expensive,6,2,9,9,6,6,2,29157,5,4,ty
A2541C8MY0BYV3:3WETL7AQWUG1F9T4QT02MYR8M0853T,1459949256288,english,2,fast,car,stage,extremely slow,extremely fast,neither P nor Q,neither fast nor slow,Q,slow,P,fast,not-Q,not slow,neither Q nor not-Q,neither slow nor not slow,neither P nor not-P,neither fast nor not fast,not-P ,not fast,6,1,10,10,5,5,1,20276,5,4,ty
A2541C8MY0BYV3:3WETL7AQWUG1F9T4QT02MYR8M0853T,1459949268005,english,3,hot,bath,stage,extremely cold,extremely hot,neither P nor Q,neither hot nor cold,Q,cold,P,hot,not-Q,not cold,neither Q nor not-Q,neither cold nor not cold,neither P nor not-P,neither hot nor not hot,not-P ,not hot,6,1,10,10,6,6,1,11676,5,4,ty
A2541C8MY0BYV3:3WETL7AQWUG1F9T4QT02MYR8M0853T,1459949282435,english,4,full,band,stage,no one,sold out,neither P nor Q,neither full nor empty,Q,empty,P,full,not-Q,not empty,neither Q nor not-Q,neither empty nor not empty,neither P nor not-P,neither full nor not full,not-P ,not full,6,1,10,10,6,6,3,14387,5,4,ty
A2541C8MY0BYV3:3WETL7AQWUG1F9T4QT02MYR8M0853T,1459949292696,english,5,tall,US male,individual,extremely short,extremely tall,neither P nor Q,neither tall nor short,Q,short,P,tall,not-Q,not short,neither Q nor not-Q,neither short nor not short,neither P nor not-P,neither tall nor not tall,not-P ,not tall,6,1,10,10,6,6,3,10222,5,4,ty
A2541C8MY0BYV3:3WETL7AQWUG1F9T4QT02MYR8M0853T,1459949305272,english,6,long,movie,individual,extremely short,extremely long,neither P nor Q,neither long nor short,Q,short,P,long,not-Q,not short,neither Q nor not-Q,neither short nor not short,neither P nor not-P,neither long nor not long,not-P ,not long,6,1,10,10,6,6,1,12533,5,4,ty
A3AO2N7BNFDGF3:3ZGVPD4G6UP4L4BNCWD9TF21HYSZTA,1459949381932,English,1,hot,bath,stage,extremely cold,extremely hot,neither P nor Q,neither hot nor cold,neither P nor not-P,neither hot nor not hot,not-Q,not cold,not-P ,not hot,neither Q nor not-Q,neither cold nor not cold,Q,cold,P,hot,6,6,9,4,6,2,9,26216,8,0,
A3AO2N7BNFDGF3:3ZGVPD4G6UP4L4BNCWD9TF21HYSZTA,1459949406019,English,2,fast,car,stage,extremely slow,extremely fast,neither P nor Q,neither fast nor slow,neither P nor not-P,neither fast nor not fast,not-Q,not slow,not-P ,not fast,neither Q nor not-Q,neither slow nor not slow,Q,slow,P,fast,6,6,8,3,6,2,9,24076,8,0,
A3AO2N7BNFDGF3:3ZGVPD4G6UP4L4BNCWD9TF21HYSZTA,1459949441951,English,3,tall,US male,individual,extremely short,extremely tall,neither P nor Q,neither tall nor short,neither P nor not-P,neither tall nor not tall,not-Q,not short,not-P ,not tall,neither Q nor not-Q,neither short nor not short,Q,short,P,tall,6,6,8,3,6,2,9,35923,8,0,
A3AO2N7BNFDGF3:3ZGVPD4G6UP4L4BNCWD9TF21HYSZTA,1459949469952,English,4,full,band,stage,no one,sold out,neither P nor Q,neither full nor empty,neither P nor not-P,neither full nor not full,not-Q,not empty,not-P ,not full,neither Q nor not-Q,neither empty nor not empty,Q,empty,P,full,6,6,8,3,6,2,10,27992,8,0,
A3AO2N7BNFDGF3:3ZGVPD4G6UP4L4BNCWD9TF21HYSZTA,1459949501022,English,5,long,movie,individual,extremely short,extremely long,neither P nor Q,neither long nor short,neither P nor not-P,neither long nor not long,not-Q,not short,not-P ,not long,neither Q nor not-Q,neither short nor not short,Q,short,P,long,6,6,8,3,6,2,9,31057,8,0,
A3AO2N7BNFDGF3:3ZGVPD4G6UP4L4BNCWD9TF21HYSZTA,1459949528141,English,6,expensive,laptop,individual,almost nothing,an enormous amount,neither P nor Q,neither expensive nor cheap,neither P nor not-P,neither expensive nor not expensive,not-Q,not cheap,not-P ,not expensive,neither Q nor not-Q,neither cheap nor not cheap,Q,cheap,P,expensive,6,6,8,4,6,3,9,27111,8,0,
A1K8QNLYYYX21W:3C5W7UE9CGYB3ELO2HOCAGRYGYQMX8,1460312740843,English,1,expensive,laptop,individual,almost nothing,an enormous amount,neither Q nor not-Q,neither cheap nor not cheap,not-P ,not expensive,neither P nor not-P,neither expensive nor not expensive,neither P nor Q,neither expensive nor cheap,not-Q,not cheap,P,expensive,Q,cheap,5,3,6,6,9,10,2,19977,8,4,
A1K8QNLYYYX21W:3C5W7UE9CGYB3ELO2HOCAGRYGYQMX8,1460312761748,English,2,tall,US male,individual,extremely short,extremely tall,Q,short,neither P nor not-P,neither tall nor not tall,not-Q,not short,neither Q nor not-Q,neither short nor not short,P,tall,not-P ,not tall,neither P nor Q,neither tall nor short,4,6,7,6,8,4,6,20869,8,4,
A1K8QNLYYYX21W:3C5W7UE9CGYB3ELO2HOCAGRYGYQMX8,1460312778092,English,3,long,movie,individual,extremely short,extremely long,neither Q nor not-Q,neither short nor not short,neither P nor not-P,neither long nor not long,not-Q,not short,not-P ,not long,P,long,Q,short,neither P nor Q,neither long nor short,6,6,8,6,8,4,6,16323,8,4,
A1K8QNLYYYX21W:3C5W7UE9CGYB3ELO2HOCAGRYGYQMX8,1460312798029,English,4,full,band,stage,no one,sold out,neither P nor Q,neither full nor empty,not-P ,not full,Q,empty,not-Q,not empty,neither Q nor not-Q,neither empty nor not empty,P,full,neither P nor not-P,neither full nor not full,6,4,3,6,6,9,5,19917,8,4,
A1K8QNLYYYX21W:3C5W7UE9CGYB3ELO2HOCAGRYGYQMX8,1460312813379,English,5,hot,bath,stage,extremely cold,extremely hot,neither P nor Q,neither hot nor cold,not-Q,not cold,Q,cold,P,hot,neither P nor not-P,neither hot nor not hot,neither Q nor not-Q,neither cold nor not cold,not-P ,not hot,7,8,4,10,6,6,4,15329,8,4,
A1K8QNLYYYX21W:3C5W7UE9CGYB3ELO2HOCAGRYGYQMX8,1460312829048,English,6,fast,car,stage,extremely slow,extremely fast,Q,slow,not-P ,not fast,neither P nor not-P,neither fast nor not fast,neither P nor Q,neither fast nor slow,not-Q,not slow,neither Q nor not-Q,neither slow nor not slow,P,fast,5,7,6,6,8,6,8,15642,8,4,
A1ICEHLHW6JNN1:3VHHR074H4PXIHXCKSJZG4ZLDSU7LO,1459949203199,English,1,tall,US male,individual,extremely short,extremely tall,neither P nor not-P,neither tall nor not tall,not-P ,not tall,neither Q nor not-Q,neither short nor not short,P,tall,not-Q,not short,Q,short,neither P nor Q,neither tall nor short,7,4,7,8,7,2,6,33852,3,2,this was an interesting task. 
A1ICEHLHW6JNN1:3VHHR074H4PXIHXCKSJZG4ZLDSU7LO,1459949256715,English,2,fast,car,stage,extremely slow,extremely fast,neither P nor not-P,neither fast nor not fast,not-P ,not fast,neither Q nor not-Q,neither slow nor not slow,P,fast,not-Q,not slow,Q,slow,neither P nor Q,neither fast nor slow,6,4,6,9,7,2,6,53495,3,2,this was an interesting task. 
A1ICEHLHW6JNN1:3VHHR074H4PXIHXCKSJZG4ZLDSU7LO,1459949283522,English,3,expensive,laptop,individual,almost nothing,an enormous amount,neither P nor not-P,neither expensive nor not expensive,not-P ,not expensive,neither Q nor not-Q,neither cheap nor not cheap,P,expensive,not-Q,not cheap,Q,cheap,neither P nor Q,neither expensive nor cheap,7,4,6,9,7,2,6,26801,3,2,this was an interesting task. 
A1ICEHLHW6JNN1:3VHHR074H4PXIHXCKSJZG4ZLDSU7LO,1459949307422,English,4,full,band,stage,no one,sold out,neither P nor not-P,neither full nor not full,not-P ,not full,neither Q nor not-Q,neither empty nor not empty,P,full,not-Q,not empty,Q,empty,neither P nor Q,neither full nor empty,6,4,6,10,3,1,6,23878,3,2,this was an interesting task. 
A1ICEHLHW6JNN1:3VHHR074H4PXIHXCKSJZG4ZLDSU7LO,1459949340305,English,5,hot,bath,stage,extremely cold,extremely hot,neither P nor not-P,neither hot nor not hot,not-P ,not hot,neither Q nor not-Q,neither cold nor not cold,P,hot,not-Q,not cold,Q,cold,neither P nor Q,neither hot nor cold,6,7,6,10,7,2,6,32864,3,2,this was an interesting task. 
A1ICEHLHW6JNN1:3VHHR074H4PXIHXCKSJZG4ZLDSU7LO,1459949364713,English,6,long,movie,individual,extremely short,extremely long,neither P nor not-P,neither long nor not long,not-P ,not long,neither Q nor not-Q,neither short nor not short,P,long,not-Q,not short,Q,short,neither P nor Q,neither long nor short,6,4,6,9,7,2,6,24391,3,2,this was an interesting task. 
A2NAKIXS3DVGAA:3LBXNTKX0S3WWU2UD8K75ULEFRR9XN,1459952187097,English ,1,tall,US male,individual,extremely short,extremely tall,P,tall,Q,short,neither Q nor not-Q,neither short nor not short,neither P nor not-P,neither tall nor not tall,not-P ,not tall,neither P nor Q,neither tall nor short,not-Q,not short,7,4,6,4,5,6,7,19181,10,3,
A2NAKIXS3DVGAA:3LBXNTKX0S3WWU2UD8K75ULEFRR9XN,1459952203707,English ,2,fast,car,stage,extremely slow,extremely fast,P,fast,Q,slow,neither Q nor not-Q,neither slow nor not slow,neither P nor not-P,neither fast nor not fast,not-P ,not fast,neither P nor Q,neither fast nor slow,not-Q,not slow,8,4,8,4,4,6,7,16596,10,3,
A2NAKIXS3DVGAA:3LBXNTKX0S3WWU2UD8K75ULEFRR9XN,1459952227172,English ,3,full,band,stage,no one,sold out,P,full,Q,empty,neither Q nor not-Q,neither empty nor not empty,neither P nor not-P,neither full nor not full,not-P ,not full,neither P nor Q,neither full nor empty,not-Q,not empty,8,3,7,5,5,6,7,23442,10,3,
A2NAKIXS3DVGAA:3LBXNTKX0S3WWU2UD8K75ULEFRR9XN,1459952242478,English ,4,expensive,laptop,individual,almost nothing,an enormous amount,P,expensive,Q,cheap,neither Q nor not-Q,neither cheap nor not cheap,neither P nor not-P,neither expensive nor not expensive,not-P ,not expensive,neither P nor Q,neither expensive nor cheap,not-Q,not cheap,8,4,7,5,5,6,7,15286,10,3,
A2NAKIXS3DVGAA:3LBXNTKX0S3WWU2UD8K75ULEFRR9XN,1459952263469,English ,5,long,movie,individual,extremely short,extremely long,P,long,Q,short,neither Q nor not-Q,neither short nor not short,neither P nor not-P,neither long nor not long,not-P ,not long,neither P nor Q,neither long nor short,not-Q,not short,8,3,6,5,5,6,7,20974,10,3,
A2NAKIXS3DVGAA:3LBXNTKX0S3WWU2UD8K75ULEFRR9XN,1459952281702,English ,6,hot,bath,stage,extremely cold,extremely hot,P,hot,Q,cold,neither Q nor not-Q,neither cold nor not cold,neither P nor not-P,neither hot nor not hot,not-P ,not hot,neither P nor Q,neither hot nor cold,not-Q,not cold,8,3,7,5,5,6,7,18216,10,3,
A24GPHD08ZS5LT:3KRVW3HTZOT37XZP87IPB8A61JNSM5,1460389157478,english,1,expensive,laptop,individual,almost nothing,an enormous amount,not-Q,not cheap,not-P ,not expensive,neither Q nor not-Q,neither cheap nor not cheap,neither P nor Q,neither expensive nor cheap,Q,cheap,P,expensive,neither P nor not-P,neither expensive nor not expensive,9,8,8,5,3,9,6,67136,6,3,
A24GPHD08ZS5LT:3KRVW3HTZOT37XZP87IPB8A61JNSM5,1460389184397,english,2,long,movie,individual,extremely short,extremely long,not-P ,not long,P,long,not-Q,not short,neither P nor not-P,neither long nor not long,Q,short,neither Q nor not-Q,neither short nor not short,neither P nor Q,neither long nor short,3,9,9,5,3,5,5,26894,6,3,
A24GPHD08ZS5LT:3KRVW3HTZOT37XZP87IPB8A61JNSM5,1460389204581,english,3,hot,bath,stage,extremely cold,extremely hot,neither P nor Q,neither hot nor cold,neither Q nor not-Q,neither cold nor not cold,Q,cold,P,hot,not-P ,not hot,not-Q,not cold,neither P nor not-P,neither hot nor not hot,4,9,2,8,3,8,5,20165,6,3,
A24GPHD08ZS5LT:3KRVW3HTZOT37XZP87IPB8A61JNSM5,1460389222555,english,4,fast,car,stage,extremely slow,extremely fast,neither Q nor not-Q,neither slow nor not slow,neither P nor not-P,neither fast nor not fast,Q,slow,P,fast,not-Q,not slow,neither P nor Q,neither fast nor slow,not-P ,not fast,5,3,4,8,8,5,3,17956,6,3,
A24GPHD08ZS5LT:3KRVW3HTZOT37XZP87IPB8A61JNSM5,1460389294512,english,5,full,band,stage,no one,sold out,neither P nor not-P,neither full nor not full,P,full,neither P nor Q,neither full nor empty,not-Q,not empty,neither Q nor not-Q,neither empty nor not empty,Q,empty,not-P ,not full,5,9,5,8,5,1,2,71940,6,3,
A24GPHD08ZS5LT:3KRVW3HTZOT37XZP87IPB8A61JNSM5,1460389312917,english,6,tall,US male,individual,extremely short,extremely tall,not-P ,not tall,neither P nor Q,neither tall nor short,not-Q,not short,Q,short,neither Q nor not-Q,neither short nor not short,neither P nor not-P,neither tall nor not tall,P,tall,4,6,8,1,5,5,8,18385,6,3,
A3U5CRG5S8I800:3WJ1OXY92BOKMCBRX6MFLQF5U01A8W,1459949808302,English,1,full,band,stage,no one,sold out,P,full,neither P nor not-P,neither full nor not full,Q,empty,not-P ,not full,neither P nor Q,neither full nor empty,neither Q nor not-Q,neither empty nor not empty,not-Q,not empty,10,6,1,6,6,6,6,86894,8,2,nice survey 
A3U5CRG5S8I800:3WJ1OXY92BOKMCBRX6MFLQF5U01A8W,1459949866916,English,2,tall,US male,individual,extremely short,extremely tall,P,tall,neither P nor not-P,neither tall nor not tall,Q,short,not-P ,not tall,neither P nor Q,neither tall nor short,neither Q nor not-Q,neither short nor not short,not-Q,not short,8,6,2,6,6,3,7,58607,8,2,nice survey 
A3U5CRG5S8I800:3WJ1OXY92BOKMCBRX6MFLQF5U01A8W,1459949926442,English,3,fast,car,stage,extremely slow,extremely fast,P,fast,neither P nor not-P,neither fast nor not fast,Q,slow,not-P ,not fast,neither P nor Q,neither fast nor slow,neither Q nor not-Q,neither slow nor not slow,not-Q,not slow,9,7,2,6,6,3,8,59519,8,2,nice survey 
A3U5CRG5S8I800:3WJ1OXY92BOKMCBRX6MFLQF5U01A8W,1459949973504,English,4,expensive,laptop,individual,almost nothing,an enormous amount,P,expensive,neither P nor not-P,neither expensive nor not expensive,Q,cheap,not-P ,not expensive,neither P nor Q,neither expensive nor cheap,neither Q nor not-Q,neither cheap nor not cheap,not-Q,not cheap,9,7,2,6,6,3,8,47055,8,2,nice survey 
A3U5CRG5S8I800:3WJ1OXY92BOKMCBRX6MFLQF5U01A8W,1459950019145,English,5,long,movie,individual,extremely short,extremely long,P,long,neither P nor not-P,neither long nor not long,Q,short,not-P ,not long,neither P nor Q,neither long nor short,neither Q nor not-Q,neither short nor not short,not-Q,not short,9,7,2,6,6,4,7,45635,8,2,nice survey 
A3U5CRG5S8I800:3WJ1OXY92BOKMCBRX6MFLQF5U01A8W,1459950081475,English,6,hot,bath,stage,extremely cold,extremely hot,P,hot,neither P nor not-P,neither hot nor not hot,Q,cold,not-P ,not hot,neither P nor Q,neither hot nor cold,neither Q nor not-Q,neither cold nor not cold,not-Q,not cold,9,7,1,5,6,3,6,62322,8,2,nice survey 
A3BI0AX5T5GVO3:3QY5DC2MXSSDG0ZCBP9CVJ8LO75UF8,1459951158237,English,1,tall,US male,individual,extremely short,extremely tall,neither Q nor not-Q,neither short nor not short,not-P ,not tall,Q,short,not-Q,not short,neither P nor Q,neither tall nor short,neither P nor not-P,neither tall nor not tall,P,tall,6,3,2,9,7,7,9,16738,3,4,
A3BI0AX5T5GVO3:3QY5DC2MXSSDG0ZCBP9CVJ8LO75UF8,1459951167681,English,2,hot,bath,stage,extremely cold,extremely hot,neither Q nor not-Q,neither cold nor not cold,not-P ,not hot,Q,cold,not-Q,not cold,neither P nor Q,neither hot nor cold,neither P nor not-P,neither hot nor not hot,P,hot,6,4,2,3,6,5,9,9421,3,4,
A3BI0AX5T5GVO3:3QY5DC2MXSSDG0ZCBP9CVJ8LO75UF8,1459951174955,English,3,expensive,laptop,individual,almost nothing,an enormous amount,neither Q nor not-Q,neither cheap nor not cheap,not-P ,not expensive,Q,cheap,not-Q,not cheap,neither P nor Q,neither expensive nor cheap,neither P nor not-P,neither expensive nor not expensive,P,expensive,7,3,2,8,6,6,10,7255,3,4,
A3BI0AX5T5GVO3:3QY5DC2MXSSDG0ZCBP9CVJ8LO75UF8,1459951182146,English,4,long,movie,individual,extremely short,extremely long,neither Q nor not-Q,neither short nor not short,not-P ,not long,Q,short,not-Q,not short,neither P nor Q,neither long nor short,neither P nor not-P,neither long nor not long,P,long,6,3,2,3,7,7,10,7165,3,4,
A3BI0AX5T5GVO3:3QY5DC2MXSSDG0ZCBP9CVJ8LO75UF8,1459951245353,English,5,fast,car,stage,extremely slow,extremely fast,neither Q nor not-Q,neither slow nor not slow,not-P ,not fast,Q,slow,not-Q,not slow,neither P nor Q,neither fast nor slow,neither P nor not-P,neither fast nor not fast,P,fast,6,4,2,7,6,4,10,63189,3,4,
A3BI0AX5T5GVO3:3QY5DC2MXSSDG0ZCBP9CVJ8LO75UF8,1459951251065,English,6,full,band,stage,no one,sold out,neither Q nor not-Q,neither empty nor not empty,not-P ,not full,Q,empty,not-Q,not empty,neither P nor Q,neither full nor empty,neither P nor not-P,neither full nor not full,P,full,6,3,2,8,6,7,9,5699,3,4,
A3P5WIW36V70AI:308Q0PEVB9LZ6ZDZEMK62KYZSMEI94,1460389386507,English,1,expensive,laptop,individual,almost nothing,an enormous amount,Q,cheap,neither P nor Q,neither expensive nor cheap,neither P nor not-P,neither expensive nor not expensive,P,expensive,not-Q,not cheap,not-P ,not expensive,neither Q nor not-Q,neither cheap nor not cheap,3,6,6,9,7,5,6,38840,10,2,
A3P5WIW36V70AI:308Q0PEVB9LZ6ZDZEMK62KYZSMEI94,1460389432629,English,2,full,band,stage,no one,sold out,not-P ,not full,not-Q,not empty,neither P nor Q,neither full nor empty,neither Q nor not-Q,neither empty nor not empty,P,full,Q,empty,neither P nor not-P,neither full nor not full,8,4,6,6,10,1,6,46092,10,2,
A3P5WIW36V70AI:308Q0PEVB9LZ6ZDZEMK62KYZSMEI94,1460389460801,English,3,hot,bath,stage,extremely cold,extremely hot,P,hot,not-P ,not hot,neither Q nor not-Q,neither cold nor not cold,neither P nor not-P,neither hot nor not hot,neither P nor Q,neither hot nor cold,not-Q,not cold,Q,cold,9,6,6,6,6,6,3,28149,10,2,
A3P5WIW36V70AI:308Q0PEVB9LZ6ZDZEMK62KYZSMEI94,1460389487224,English,4,long,movie,individual,extremely short,extremely long,not-Q,not short,not-P ,not long,neither P nor not-P,neither long nor not long,neither P nor Q,neither long nor short,neither Q nor not-Q,neither short nor not short,Q,short,P,long,8,6,6,6,4,2,9,26408,10,2,
A3P5WIW36V70AI:308Q0PEVB9LZ6ZDZEMK62KYZSMEI94,1460389509324,English,5,tall,US male,individual,extremely short,extremely tall,P,tall,not-Q,not short,not-P ,not tall,neither Q nor not-Q,neither short nor not short,Q,short,neither P nor Q,neither tall nor short,neither P nor not-P,neither tall nor not tall,9,7,6,6,2,6,8,22069,10,2,
A3P5WIW36V70AI:308Q0PEVB9LZ6ZDZEMK62KYZSMEI94,1460389538381,English,6,fast,car,stage,extremely slow,extremely fast,not-P ,not fast,neither P nor not-P,neither fast nor not fast,neither Q nor not-Q,neither slow nor not slow,Q,slow,neither P nor Q,neither fast nor slow,P,fast,not-Q,not slow,5,8,4,2,6,9,7,29026,10,2,
AMPMTF5IAAMK8:369J354OFEIYSP56QRHRXYUHN8EG6Z,1460389274839,English,1,tall,US male,individual,extremely short,extremely tall,Q,short,P,tall,not-Q,not short,neither P nor Q,neither tall nor short,not-P ,not tall,neither P nor not-P,neither tall nor not tall,neither Q nor not-Q,neither short nor not short,2,9,8,6,4,6,6,24750,6,6,
AMPMTF5IAAMK8:369J354OFEIYSP56QRHRXYUHN8EG6Z,1460389296666,English,2,hot,bath,stage,extremely cold,extremely hot,P,hot,neither Q nor not-Q,neither cold nor not cold,not-P ,not hot,neither P nor not-P,neither hot nor not hot,neither P nor Q,neither hot nor cold,not-Q,not cold,Q,cold,9,6,3,6,6,8,3,21815,6,6,
AMPMTF5IAAMK8:369J354OFEIYSP56QRHRXYUHN8EG6Z,1460389316235,English,3,full,band,stage,no one,sold out,neither Q nor not-Q,neither empty nor not empty,not-P ,not full,neither P nor Q,neither full nor empty,P,full,Q,empty,not-Q,not empty,neither P nor not-P,neither full nor not full,6,3,5,10,2,9,6,19561,6,6,
AMPMTF5IAAMK8:369J354OFEIYSP56QRHRXYUHN8EG6Z,1460389340012,English,4,fast,car,stage,extremely slow,extremely fast,not-Q,not slow,neither Q nor not-Q,neither slow nor not slow,not-P ,not fast,neither P nor Q,neither fast nor slow,P,fast,Q,slow,neither P nor not-P,neither fast nor not fast,8,6,3,6,3,8,5,23755,6,6,
AMPMTF5IAAMK8:369J354OFEIYSP56QRHRXYUHN8EG6Z,1460389356183,English,5,long,movie,individual,extremely short,extremely long,neither P nor Q,neither long nor short,neither P nor not-P,neither long nor not long,Q,short,not-P ,not long,not-Q,not short,P,long,neither Q nor not-Q,neither short nor not short,6,6,2,2,9,9,6,16159,6,6,
AMPMTF5IAAMK8:369J354OFEIYSP56QRHRXYUHN8EG6Z,1460389374714,English,6,expensive,laptop,individual,almost nothing,an enormous amount,not-P ,not expensive,neither Q nor not-Q,neither cheap nor not cheap,P,expensive,Q,cheap,not-Q,not cheap,neither P nor not-P,neither expensive nor not expensive,neither P nor Q,neither expensive nor cheap,2,7,9,2,9,6,5,18521,6,6,
A17D6BK59S31BM:3DPNQGW4LMNIG9CMVQFQO9XEX49648,1460391827506,english,1,fast,car,stage,extremely slow,extremely fast,P,fast,neither P nor Q,neither fast nor slow,Q,slow,not-P ,not fast,not-Q,not slow,neither Q nor not-Q,neither slow nor not slow,neither P nor not-P,neither fast nor not fast,6,6,4,7,6,6,6,13741,10,5,
A17D6BK59S31BM:3DPNQGW4LMNIG9CMVQFQO9XEX49648,1460391842289,english,2,expensive,laptop,individual,almost nothing,an enormous amount,not-P ,not expensive,Q,cheap,neither P nor not-P,neither expensive nor not expensive,neither Q nor not-Q,neither cheap nor not cheap,P,expensive,neither P nor Q,neither expensive nor cheap,not-Q,not cheap,7,4,8,5,5,7,4,14748,10,5,
A17D6BK59S31BM:3DPNQGW4LMNIG9CMVQFQO9XEX49648,1460391855514,english,3,full,band,stage,no one,sold out,neither Q nor not-Q,neither empty nor not empty,not-P ,not full,Q,empty,not-Q,not empty,neither P nor not-P,neither full nor not full,neither P nor Q,neither full nor empty,P,full,6,3,7,4,6,6,6,13198,10,5,
A17D6BK59S31BM:3DPNQGW4LMNIG9CMVQFQO9XEX49648,1460391866424,english,4,tall,US male,individual,extremely short,extremely tall,not-Q,not short,P,tall,neither Q nor not-Q,neither short nor not short,neither P nor Q,neither tall nor short,not-P ,not tall,Q,short,neither P nor not-P,neither tall nor not tall,7,4,7,5,5,5,6,10882,10,5,
A17D6BK59S31BM:3DPNQGW4LMNIG9CMVQFQO9XEX49648,1460391877987,english,5,long,movie,individual,extremely short,extremely long,neither P nor not-P,neither long nor not long,Q,short,not-P ,not long,not-Q,not short,P,long,neither Q nor not-Q,neither short nor not short,neither P nor Q,neither long nor short,7,4,7,5,7,4,6,11539,10,5,
A17D6BK59S31BM:3DPNQGW4LMNIG9CMVQFQO9XEX49648,1460391888473,english,6,hot,bath,stage,extremely cold,extremely hot,neither P nor not-P,neither hot nor not hot,neither Q nor not-Q,neither cold nor not cold,P,hot,not-Q,not cold,neither P nor Q,neither hot nor cold,Q,cold,not-P ,not hot,6,4,7,4,7,4,7,10458,10,5,
A2WCXJZEXXR60A:3MYYFCXHJ4FKD21S73OC00A3RH8G4E,1460388030844,English,1,expensive,laptop,individual,almost nothing,an enormous amount,not-Q,not cheap,neither P nor not-P,neither expensive nor not expensive,neither P nor Q,neither expensive nor cheap,not-P ,not expensive,Q,cheap,P,expensive,neither Q nor not-Q,neither cheap nor not cheap,8,6,6,5,3,8,6,28534,10,2,
A2WCXJZEXXR60A:3MYYFCXHJ4FKD21S73OC00A3RH8G4E,1460388057887,English,2,hot,bath,stage,extremely cold,extremely hot,neither Q nor not-Q,neither cold nor not cold,neither P nor Q,neither hot nor cold,not-P ,not hot,P,hot,neither P nor not-P,neither hot nor not hot,Q,cold,not-Q,not cold,6,6,8,9,6,3,6,27036,10,2,
A2WCXJZEXXR60A:3MYYFCXHJ4FKD21S73OC00A3RH8G4E,1460388092084,English,3,fast,car,stage,extremely slow,extremely fast,not-P ,not fast,neither P nor not-P,neither fast nor not fast,not-Q,not slow,neither Q nor not-Q,neither slow nor not slow,Q,slow,neither P nor Q,neither fast nor slow,P,fast,5,7,8,8,3,7,9,34191,10,2,
A2WCXJZEXXR60A:3MYYFCXHJ4FKD21S73OC00A3RH8G4E,1460388114890,English,4,tall,US male,individual,extremely short,extremely tall,neither Q nor not-Q,neither short nor not short,neither P nor Q,neither tall nor short,neither P nor not-P,neither tall nor not tall,P,tall,Q,short,not-P ,not tall,not-Q,not short,6,6,6,9,3,7,7,22800,10,2,
A2WCXJZEXXR60A:3MYYFCXHJ4FKD21S73OC00A3RH8G4E,1460388172658,English,5,full,band,stage,no one,sold out,P,full,not-Q,not empty,neither P nor Q,neither full nor empty,neither Q nor not-Q,neither empty nor not empty,neither P nor not-P,neither full nor not full,Q,empty,not-P ,not full,9,10,7,8,7,1,8,57761,10,2,
A2WCXJZEXXR60A:3MYYFCXHJ4FKD21S73OC00A3RH8G4E,1460388196375,English,6,long,movie,individual,extremely short,extremely long,neither P nor Q,neither long nor short,neither P nor not-P,neither long nor not long,neither Q nor not-Q,neither short nor not short,not-Q,not short,not-P ,not long,P,long,Q,short,7,7,7,8,4,9,2,23711,10,2,
AMDX0UNZS4A1G:340UGXU9DZ92CXL2B4EGD5B7DANVUA,1460392574234,English,1,expensive,laptop,individual,almost nothing,an enormous amount,neither P nor not-P,neither expensive nor not expensive,neither P nor Q,neither expensive nor cheap,neither Q nor not-Q,neither cheap nor not cheap,Q,cheap,not-P ,not expensive,not-Q,not cheap,P,expensive,6,6,6,2,2,2,10,52508,8,2,no
AMDX0UNZS4A1G:340UGXU9DZ92CXL2B4EGD5B7DANVUA,1460392615356,English,2,fast,car,stage,extremely slow,extremely fast,not-Q,not slow,Q,slow,neither Q nor not-Q,neither slow nor not slow,P,fast,neither P nor not-P,neither fast nor not fast,not-P ,not fast,neither P nor Q,neither fast nor slow,7,3,6,9,6,3,6,41069,8,2,no
AMDX0UNZS4A1G:340UGXU9DZ92CXL2B4EGD5B7DANVUA,1460392654818,English,3,long,movie,individual,extremely short,extremely long,neither P nor Q,neither long nor short,Q,short,neither P nor not-P,neither long nor not long,not-P ,not long,neither Q nor not-Q,neither short nor not short,P,long,not-Q,not short,6,2,6,3,6,9,8,39400,8,2,no
AMDX0UNZS4A1G:340UGXU9DZ92CXL2B4EGD5B7DANVUA,1460392686096,English,4,full,band,stage,no one,sold out,neither P nor not-P,neither full nor not full,P,full,not-Q,not empty,neither Q nor not-Q,neither empty nor not empty,not-P ,not full,neither P nor Q,neither full nor empty,Q,empty,6,10,8,6,3,6,1,31218,8,2,no
AMDX0UNZS4A1G:340UGXU9DZ92CXL2B4EGD5B7DANVUA,1460392723419,English,5,hot,bath,stage,extremely cold,extremely hot,neither P nor not-P,neither hot nor not hot,neither P nor Q,neither hot nor cold,neither Q nor not-Q,neither cold nor not cold,not-Q,not cold,Q,cold,not-P ,not hot,P,hot,6,6,6,8,2,4,9,37258,8,2,no
AMDX0UNZS4A1G:340UGXU9DZ92CXL2B4EGD5B7DANVUA,1460392766961,English,6,tall,US male,individual,extremely short,extremely tall,neither P nor not-P,neither tall nor not tall,P,tall,neither Q nor not-Q,neither short nor not short,not-Q,not short,not-P ,not tall,Q,short,neither P nor Q,neither tall nor short,6,9,6,8,4,2,6,43482,8,2,no
A2ZRF4I5RTKN7G:3WYP994K18ZYEGQ6KX3X4Y1LS44Y6F,1460389569793,English,1,full,band,stage,no one,sold out,P,full,Q,empty,neither Q nor not-Q,neither empty nor not empty,neither P nor Q,neither full nor empty,not-Q,not empty,not-P ,not full,neither P nor not-P,neither full nor not full,10,2,4,8,3,5,7,29192,7,5,No.
A2ZRF4I5RTKN7G:3WYP994K18ZYEGQ6KX3X4Y1LS44Y6F,1460389611782,English,2,fast,car,stage,extremely slow,extremely fast,neither P nor Q,neither fast nor slow,not-P ,not fast,neither P nor not-P,neither fast nor not fast,Q,slow,P,fast,neither Q nor not-Q,neither slow nor not slow,not-Q,not slow,6,4,6,2,10,4,8,41972,7,5,No.
A2ZRF4I5RTKN7G:3WYP994K18ZYEGQ6KX3X4Y1LS44Y6F,1460389654497,English,3,long,movie,individual,extremely short,extremely long,not-P ,not long,neither Q nor not-Q,neither short nor not short,neither P nor Q,neither long nor short,P,long,not-Q,not short,Q,short,neither P nor not-P,neither long nor not long,4,5,6,10,9,2,8,42702,7,5,No.
A2ZRF4I5RTKN7G:3WYP994K18ZYEGQ6KX3X4Y1LS44Y6F,1460389692565,English,4,hot,bath,stage,extremely cold,extremely hot,neither P nor not-P,neither hot nor not hot,not-P ,not hot,P,hot,neither Q nor not-Q,neither cold nor not cold,neither P nor Q,neither hot nor cold,not-Q,not cold,Q,cold,7,4,10,5,6,8,1,38054,7,5,No.
A2ZRF4I5RTKN7G:3WYP994K18ZYEGQ6KX3X4Y1LS44Y6F,1460389718339,English,5,tall,US male,individual,extremely short,extremely tall,not-P ,not tall,neither P nor not-P,neither tall nor not tall,not-Q,not short,neither Q nor not-Q,neither short nor not short,neither P nor Q,neither tall nor short,Q,short,P,tall,3,7,9,5,6,1,9,25761,7,5,No.
A2ZRF4I5RTKN7G:3WYP994K18ZYEGQ6KX3X4Y1LS44Y6F,1460389749485,English,6,expensive,laptop,individual,almost nothing,an enormous amount,not-Q,not cheap,not-P ,not expensive,neither P nor not-P,neither expensive nor not expensive,P,expensive,Q,cheap,neither P nor Q,neither expensive nor cheap,neither Q nor not-Q,neither cheap nor not cheap,8,4,7,9,2,6,5,31135,7,5,No.
A1VZSFHTU51JP0:3OUYGIZWR869RRCQRLRXI6YIBWG0PN,1460387660731,English,1,long,movie,individual,extremely short,extremely long,not-Q,not short,neither P nor not-P,neither long nor not long,Q,short,not-P ,not long,neither P nor Q,neither long nor short,neither Q nor not-Q,neither short nor not short,P,long,9,6,3,7,6,6,10,58570,7,2,
A1VZSFHTU51JP0:3OUYGIZWR869RRCQRLRXI6YIBWG0PN,1460387697881,English,2,hot,bath,stage,extremely cold,extremely hot,P,hot,neither P nor Q,neither hot nor cold,Q,cold,not-P ,not hot,not-Q,not cold,neither Q nor not-Q,neither cold nor not cold,neither P nor not-P,neither hot nor not hot,9,6,1,4,7,6,6,37135,7,2,
A1VZSFHTU51JP0:3OUYGIZWR869RRCQRLRXI6YIBWG0PN,1460387746608,English,3,fast,car,stage,extremely slow,extremely fast,neither P nor Q,neither fast nor slow,P,fast,not-P ,not fast,Q,slow,neither P nor not-P,neither fast nor not fast,neither Q nor not-Q,neither slow nor not slow,not-Q,not slow,6,9,3,1,6,6,8,48717,7,2,
A1VZSFHTU51JP0:3OUYGIZWR869RRCQRLRXI6YIBWG0PN,1460387777400,English,4,tall,US male,individual,extremely short,extremely tall,neither P nor Q,neither tall nor short,not-P ,not tall,not-Q,not short,neither P nor not-P,neither tall nor not tall,neither Q nor not-Q,neither short nor not short,P,tall,Q,short,6,2,8,6,6,9,2,30781,7,2,
A1VZSFHTU51JP0:3OUYGIZWR869RRCQRLRXI6YIBWG0PN,1460387819479,English,5,full,band,stage,no one,sold out,neither P nor Q,neither full nor empty,P,full,not-P ,not full,not-Q,not empty,neither P nor not-P,neither full nor not full,neither Q nor not-Q,neither empty nor not empty,Q,empty,5,10,6,4,6,6,1,42068,7,2,
A1VZSFHTU51JP0:3OUYGIZWR869RRCQRLRXI6YIBWG0PN,1460387871746,English,6,expensive,laptop,individual,almost nothing,an enormous amount,Q,cheap,neither Q nor not-Q,neither cheap nor not cheap,P,expensive,not-Q,not cheap,not-P ,not expensive,neither P nor not-P,neither expensive nor not expensive,neither P nor Q,neither expensive nor cheap,3,6,9,7,3,6,6,52255,7,2,
A3RIBFIB7C8D20:3ZAZR5XV02QNZN9CQAIJ452XUKJCZC,1460388743553,english,1,expensive,laptop,individual,almost nothing,an enormous amount,neither P nor Q,neither expensive nor cheap,neither Q nor not-Q,neither cheap nor not cheap,not-P ,not expensive,Q,cheap,neither P nor not-P,neither expensive nor not expensive,P,expensive,not-Q,not cheap,5,9,3,2,6,9,9,21069,10,5,
A3RIBFIB7C8D20:3ZAZR5XV02QNZN9CQAIJ452XUKJCZC,1460388759473,english,2,long,movie,individual,extremely short,extremely long,neither P nor not-P,neither long nor not long,neither Q nor not-Q,neither short nor not short,not-Q,not short,Q,short,neither P nor Q,neither long nor short,P,long,not-P ,not long,6,9,9,2,6,9,4,15909,10,5,
A3RIBFIB7C8D20:3ZAZR5XV02QNZN9CQAIJ452XUKJCZC,1460388785235,english,3,hot,bath,stage,extremely cold,extremely hot,neither P nor not-P,neither hot nor not hot,neither P nor Q,neither hot nor cold,neither Q nor not-Q,neither cold nor not cold,not-Q,not cold,P,hot,Q,cold,not-P ,not hot,3,7,9,8,9,2,2,25754,10,5,
A3RIBFIB7C8D20:3ZAZR5XV02QNZN9CQAIJ452XUKJCZC,1460388807739,english,4,tall,US male,individual,extremely short,extremely tall,P,tall,neither P nor Q,neither tall nor short,Q,short,neither P nor not-P,neither tall nor not tall,neither Q nor not-Q,neither short nor not short,not-Q,not short,not-P ,not tall,9,7,3,3,9,9,3,22494,10,5,
A3RIBFIB7C8D20:3ZAZR5XV02QNZN9CQAIJ452XUKJCZC,1460388842143,english,5,fast,car,stage,extremely slow,extremely fast,P,fast,not-Q,not slow,neither P nor not-P,neither fast nor not fast,neither P nor Q,neither fast nor slow,Q,slow,neither Q nor not-Q,neither slow nor not slow,not-P ,not fast,9,9,2,6,2,9,2,34397,10,5,
A3RIBFIB7C8D20:3ZAZR5XV02QNZN9CQAIJ452XUKJCZC,1460388872378,english,6,full,band,stage,no one,sold out,not-P ,not full,neither P nor Q,neither full nor empty,Q,empty,P,full,neither Q nor not-Q,neither empty nor not empty,not-Q,not empty,neither P nor not-P,neither full nor not full,3,6,1,10,9,9,3,30228,10,5,
A2KW26KE43UBRS:3DY4FPOOA2WAW5TL7AJB8UON52PRVP,1459949670296,English,1,hot,bath,stage,extremely cold,extremely hot,Q,cold,neither Q nor not-Q,neither cold nor not cold,neither P nor not-P,neither hot nor not hot,P,hot,neither P nor Q,neither hot nor cold,not-P ,not hot,not-Q,not cold,4,6,8,9,6,4,7,37848,7,6,No.
A2KW26KE43UBRS:3DY4FPOOA2WAW5TL7AJB8UON52PRVP,1459949715023,English,2,long,movie,individual,extremely short,extremely long,Q,short,neither Q nor not-Q,neither short nor not short,neither P nor not-P,neither long nor not long,P,long,neither P nor Q,neither long nor short,not-P ,not long,not-Q,not short,3,4,7,9,6,6,6,44690,7,6,No.
A2KW26KE43UBRS:3DY4FPOOA2WAW5TL7AJB8UON52PRVP,1459949746179,English,3,tall,US male,individual,extremely short,extremely tall,Q,short,neither Q nor not-Q,neither short nor not short,neither P nor not-P,neither tall nor not tall,P,tall,neither P nor Q,neither tall nor short,not-P ,not tall,not-Q,not short,3,4,8,9,6,6,6,31134,7,6,No.
A2KW26KE43UBRS:3DY4FPOOA2WAW5TL7AJB8UON52PRVP,1459949789116,English,4,expensive,laptop,individual,almost nothing,an enormous amount,Q,cheap,neither Q nor not-Q,neither cheap nor not cheap,neither P nor not-P,neither expensive nor not expensive,P,expensive,neither P nor Q,neither expensive nor cheap,not-P ,not expensive,not-Q,not cheap,2,4,8,9,6,5,8,42909,7,6,No.
A2KW26KE43UBRS:3DY4FPOOA2WAW5TL7AJB8UON52PRVP,1459949859460,English,5,full,band,stage,no one,sold out,Q,empty,neither Q nor not-Q,neither empty nor not empty,neither P nor not-P,neither full nor not full,P,full,neither P nor Q,neither full nor empty,not-P ,not full,not-Q,not empty,8,3,8,10,6,8,5,70318,7,6,No.
A2KW26KE43UBRS:3DY4FPOOA2WAW5TL7AJB8UON52PRVP,1459949888091,English,6,fast,car,stage,extremely slow,extremely fast,Q,slow,neither Q nor not-Q,neither slow nor not slow,neither P nor not-P,neither fast nor not fast,P,fast,neither P nor Q,neither fast nor slow,not-P ,not fast,not-Q,not slow,2,4,9,9,6,7,8,28605,7,6,No.
A1LAZ3AO0NYBC1:3L6L49WXW15MX5C8Q75LW3JE00454E,1459959921000,English,1,hot,bath,stage,extremely cold,extremely hot,neither Q nor not-Q,neither cold nor not cold,not-Q,not cold,neither P nor not-P,neither hot nor not hot,neither P nor Q,neither hot nor cold,Q,cold,not-P ,not hot,P,hot,6,7,8,8,8,9,8,9737,9,2,No.
A1LAZ3AO0NYBC1:3L6L49WXW15MX5C8Q75LW3JE00454E,1459959930685,English,2,expensive,laptop,individual,almost nothing,an enormous amount,neither Q nor not-Q,neither cheap nor not cheap,not-Q,not cheap,neither P nor not-P,neither expensive nor not expensive,neither P nor Q,neither expensive nor cheap,Q,cheap,not-P ,not expensive,P,expensive,7,6,7,8,9,8,8,9663,9,2,No.
A1LAZ3AO0NYBC1:3L6L49WXW15MX5C8Q75LW3JE00454E,1459959940273,English,3,tall,US male,individual,extremely short,extremely tall,neither Q nor not-Q,neither short nor not short,not-Q,not short,neither P nor not-P,neither tall nor not tall,neither P nor Q,neither tall nor short,Q,short,not-P ,not tall,P,tall,7,8,9,8,8,8,7,9572,9,2,No.
A1LAZ3AO0NYBC1:3L6L49WXW15MX5C8Q75LW3JE00454E,1459959948455,English,4,full,band,stage,no one,sold out,neither Q nor not-Q,neither empty nor not empty,not-Q,not empty,neither P nor not-P,neither full nor not full,neither P nor Q,neither full nor empty,Q,empty,not-P ,not full,P,full,7,8,8,9,9,8,8,8167,9,2,No.
A1LAZ3AO0NYBC1:3L6L49WXW15MX5C8Q75LW3JE00454E,1459959958627,English,5,fast,car,stage,extremely slow,extremely fast,neither Q nor not-Q,neither slow nor not slow,not-Q,not slow,neither P nor not-P,neither fast nor not fast,neither P nor Q,neither fast nor slow,Q,slow,not-P ,not fast,P,fast,7,8,9,9,8,8,9,10156,9,2,No.
A1LAZ3AO0NYBC1:3L6L49WXW15MX5C8Q75LW3JE00454E,1459959966463,English,6,long,movie,individual,extremely short,extremely long,neither Q nor not-Q,neither short nor not short,not-Q,not short,neither P nor not-P,neither long nor not long,neither P nor Q,neither long nor short,Q,short,not-P ,not long,P,long,8,7,8,9,9,9,7,7817,9,2,No.
A1XQLUUL2K4DC7:3TAYZSBPLMGD0TVWYPZ5WZW8VE62SO,1460387971087,English,1,tall,US male,individual,extremely short,extremely tall,neither P nor not-P,neither tall nor not tall,not-P ,not tall,neither Q nor not-Q,neither short nor not short,not-Q,not short,neither P nor Q,neither tall nor short,P,tall,Q,short,5,8,7,9,6,7,4,19534,8,7,none
A1XQLUUL2K4DC7:3TAYZSBPLMGD0TVWYPZ5WZW8VE62SO,1460387982463,English,2,expensive,laptop,individual,almost nothing,an enormous amount,neither P nor not-P,neither expensive nor not expensive,not-Q,not cheap,Q,cheap,neither Q nor not-Q,neither cheap nor not cheap,not-P ,not expensive,neither P nor Q,neither expensive nor cheap,P,expensive,8,6,9,8,7,5,6,11365,8,7,none
A1XQLUUL2K4DC7:3TAYZSBPLMGD0TVWYPZ5WZW8VE62SO,1460388004254,English,3,long,movie,individual,extremely short,extremely long,P,long,not-Q,not short,Q,short,neither P nor Q,neither long nor short,not-P ,not long,neither Q nor not-Q,neither short nor not short,neither P nor not-P,neither long nor not long,8,5,8,6,4,8,8,21778,8,7,none
A1XQLUUL2K4DC7:3TAYZSBPLMGD0TVWYPZ5WZW8VE62SO,1460388022383,English,4,fast,car,stage,extremely slow,extremely fast,P,fast,neither P nor not-P,neither fast nor not fast,not-Q,not slow,not-P ,not fast,neither P nor Q,neither fast nor slow,neither Q nor not-Q,neither slow nor not slow,Q,slow,9,4,4,6,5,8,5,18120,8,7,none
A1XQLUUL2K4DC7:3TAYZSBPLMGD0TVWYPZ5WZW8VE62SO,1460388046118,English,5,full,band,stage,no one,sold out,not-Q,not empty,neither P nor not-P,neither full nor not full,Q,empty,not-P ,not full,P,full,neither Q nor not-Q,neither empty nor not empty,neither P nor Q,neither full nor empty,8,9,6,4,8,7,5,23725,8,7,none
A1XQLUUL2K4DC7:3TAYZSBPLMGD0TVWYPZ5WZW8VE62SO,1460388055000,English,6,hot,bath,stage,extremely cold,extremely hot,neither Q nor not-Q,neither cold nor not cold,P,hot,neither P nor not-P,neither hot nor not hot,neither P nor Q,neither hot nor cold,not-P ,not hot,Q,cold,not-Q,not cold,8,9,6,5,5,6,7,8872,8,7,none
AGFWV1U4CJXP5:3C5W7UE9CGYB3ELO2HOCAGRYGYOXMH,1460388712361,English,1,expensive,laptop,individual,almost nothing,an enormous amount,Q,cheap,neither Q nor not-Q,neither cheap nor not cheap,P,expensive,neither P nor not-P,neither expensive nor not expensive,not-Q,not cheap,not-P ,not expensive,neither P nor Q,neither expensive nor cheap,2,6,9,6,8,4,6,72552,3,0,No comments
AGFWV1U4CJXP5:3C5W7UE9CGYB3ELO2HOCAGRYGYOXMH,1460388725952,English,2,full,band,stage,no one,sold out,P,full,Q,empty,neither Q nor not-Q,neither empty nor not empty,neither P nor not-P,neither full nor not full,not-P ,not full,neither P nor Q,neither full nor empty,not-Q,not empty,9,3,6,6,4,6,4,13581,3,0,No comments
AGFWV1U4CJXP5:3C5W7UE9CGYB3ELO2HOCAGRYGYOXMH,1460388739447,English,3,fast,car,stage,extremely slow,extremely fast,neither P nor not-P,neither fast nor not fast,neither P nor Q,neither fast nor slow,P,fast,Q,slow,not-Q,not slow,not-P ,not fast,neither Q nor not-Q,neither slow nor not slow,6,7,9,3,7,6,6,13488,3,0,No comments
AGFWV1U4CJXP5:3C5W7UE9CGYB3ELO2HOCAGRYGYOXMH,1460388866388,English,4,hot,bath,stage,extremely cold,extremely hot,not-Q,not cold,neither P nor Q,neither hot nor cold,not-P ,not hot,neither P nor not-P,neither hot nor not hot,Q,cold,P,hot,neither Q nor not-Q,neither cold nor not cold,5,7,5,7,5,9,6,126934,3,0,No comments
AGFWV1U4CJXP5:3C5W7UE9CGYB3ELO2HOCAGRYGYOXMH,1460388899699,English,5,tall,US male,individual,extremely short,extremely tall,neither P nor Q,neither tall nor short,Q,short,neither P nor not-P,neither tall nor not tall,not-Q,not short,not-P ,not tall,neither Q nor not-Q,neither short nor not short,P,tall,6,4,7,8,5,7,9,33305,3,0,No comments
AGFWV1U4CJXP5:3C5W7UE9CGYB3ELO2HOCAGRYGYOXMH,1460388917291,English,6,long,movie,individual,extremely short,extremely long,not-Q,not short,Q,short,not-P ,not long,neither P nor Q,neither long nor short,neither Q nor not-Q,neither short nor not short,P,long,neither P nor not-P,neither long nor not long,8,4,5,6,8,8,5,17585,3,0,No comments
A1NXHA2741IJEA:3X4MXAO0BHWNBUTQXKO7UW71CBRRWZ,1459950972598,English,1,full,band,stage,no one,sold out,neither P nor Q,neither full nor empty,not-Q,not empty,Q,empty,neither P nor not-P,neither full nor not full,neither Q nor not-Q,neither empty nor not empty,not-P ,not full,P,full,6,4,1,6,6,8,10,43155,8,3,
A1NXHA2741IJEA:3X4MXAO0BHWNBUTQXKO7UW71CBRRWZ,1459950993504,English,2,fast,car,stage,extremely slow,extremely fast,neither P nor Q,neither fast nor slow,not-Q,not slow,Q,slow,neither P nor not-P,neither fast nor not fast,neither Q nor not-Q,neither slow nor not slow,not-P ,not fast,P,fast,6,9,1,6,6,3,10,20890,8,3,
A1NXHA2741IJEA:3X4MXAO0BHWNBUTQXKO7UW71CBRRWZ,1459951011424,English,3,long,movie,individual,extremely short,extremely long,neither P nor Q,neither long nor short,not-Q,not short,Q,short,neither P nor not-P,neither long nor not long,neither Q nor not-Q,neither short nor not short,not-P ,not long,P,long,6,9,1,6,6,3,10,17888,8,3,
A1NXHA2741IJEA:3X4MXAO0BHWNBUTQXKO7UW71CBRRWZ,1459951109900,English,4,expensive,laptop,individual,almost nothing,an enormous amount,neither P nor Q,neither expensive nor cheap,not-Q,not cheap,Q,cheap,neither P nor not-P,neither expensive nor not expensive,neither Q nor not-Q,neither cheap nor not cheap,not-P ,not expensive,P,expensive,6,9,1,6,6,3,10,98448,8,3,
A1NXHA2741IJEA:3X4MXAO0BHWNBUTQXKO7UW71CBRRWZ,1459951125764,English,5,tall,US male,individual,extremely short,extremely tall,neither P nor Q,neither tall nor short,not-Q,not short,Q,short,neither P nor not-P,neither tall nor not tall,neither Q nor not-Q,neither short nor not short,not-P ,not tall,P,tall,6,9,1,6,6,3,10,15846,8,3,
A1NXHA2741IJEA:3X4MXAO0BHWNBUTQXKO7UW71CBRRWZ,1459951141583,English,6,hot,bath,stage,extremely cold,extremely hot,neither P nor Q,neither hot nor cold,not-Q,not cold,Q,cold,neither P nor not-P,neither hot nor not hot,neither Q nor not-Q,neither cold nor not cold,not-P ,not hot,P,hot,6,8,1,6,6,3,10,15787,8,3,
A5EU1AQJNC7F2:3DHE4R9OCXJAAOM53P5O7LD56VM2GX,1459949408492,English,1,fast,car,stage,extremely slow,extremely fast,P,fast,not-Q,not slow,Q,slow,neither Q nor not-Q,neither slow nor not slow,not-P ,not fast,neither P nor Q,neither fast nor slow,neither P nor not-P,neither fast nor not fast,9,4,1,5,3,6,7,26809,9,1,
A5EU1AQJNC7F2:3DHE4R9OCXJAAOM53P5O7LD56VM2GX,1459949426977,English,2,expensive,laptop,individual,almost nothing,an enormous amount,P,expensive,not-Q,not cheap,Q,cheap,neither Q nor not-Q,neither cheap nor not cheap,not-P ,not expensive,neither P nor Q,neither expensive nor cheap,neither P nor not-P,neither expensive nor not expensive,10,8,1,3,5,6,8,18477,9,1,
A5EU1AQJNC7F2:3DHE4R9OCXJAAOM53P5O7LD56VM2GX,1459949442682,English,3,full,band,stage,no one,sold out,P,full,not-Q,not empty,Q,empty,neither Q nor not-Q,neither empty nor not empty,not-P ,not full,neither P nor Q,neither full nor empty,neither P nor not-P,neither full nor not full,10,5,1,3,5,6,8,15701,9,1,
A5EU1AQJNC7F2:3DHE4R9OCXJAAOM53P5O7LD56VM2GX,1459949463834,English,4,long,movie,individual,extremely short,extremely long,P,long,not-Q,not short,Q,short,neither Q nor not-Q,neither short nor not short,not-P ,not long,neither P nor Q,neither long nor short,neither P nor not-P,neither long nor not long,10,7,1,5,3,6,8,21150,9,1,
A5EU1AQJNC7F2:3DHE4R9OCXJAAOM53P5O7LD56VM2GX,1459949483211,English,5,tall,US male,individual,extremely short,extremely tall,P,tall,not-Q,not short,Q,short,neither Q nor not-Q,neither short nor not short,not-P ,not tall,neither P nor Q,neither tall nor short,neither P nor not-P,neither tall nor not tall,10,8,1,4,2,6,7,19373,9,1,
A5EU1AQJNC7F2:3DHE4R9OCXJAAOM53P5O7LD56VM2GX,1459949497520,English,6,hot,bath,stage,extremely cold,extremely hot,P,hot,not-Q,not cold,Q,cold,neither Q nor not-Q,neither cold nor not cold,not-P ,not hot,neither P nor Q,neither hot nor cold,neither P nor not-P,neither hot nor not hot,10,7,1,4,3,6,7,14301,9,1,
AC4LBMA5QJJ1I:3TEM0PF1Q6502U90MC02ICHTXDCD0L,1460388021059,English,1,full,band,stage,no one,sold out,neither Q nor not-Q,neither empty nor not empty,P,full,neither P nor Q,neither full nor empty,Q,empty,not-Q,not empty,neither P nor not-P,neither full nor not full,not-P ,not full,7,9,6,1,5,6,3,50097,9,3,"Thank you! I wish you well with your research!
"
AC4LBMA5QJJ1I:3TEM0PF1Q6502U90MC02ICHTXDCD0L,1460388047612,English,2,hot,bath,stage,extremely cold,extremely hot,Q,cold,neither P nor not-P,neither hot nor not hot,P,hot,neither Q nor not-Q,neither cold nor not cold,not-P ,not hot,neither P nor Q,neither hot nor cold,not-Q,not cold,4,6,9,6,5,6,8,26534,9,3,"Thank you! I wish you well with your research!
"
AC4LBMA5QJJ1I:3TEM0PF1Q6502U90MC02ICHTXDCD0L,1460388073547,English,3,long,movie,individual,extremely short,extremely long,neither P nor not-P,neither long nor not long,P,long,neither P nor Q,neither long nor short,neither Q nor not-Q,neither short nor not short,Q,short,not-P ,not long,not-Q,not short,7,10,6,5,2,5,9,25917,9,3,"Thank you! I wish you well with your research!
"
AC4LBMA5QJJ1I:3TEM0PF1Q6502U90MC02ICHTXDCD0L,1460388101208,English,4,expensive,laptop,individual,almost nothing,an enormous amount,Q,cheap,P,expensive,not-Q,not cheap,neither Q nor not-Q,neither cheap nor not cheap,neither P nor not-P,neither expensive nor not expensive,not-P ,not expensive,neither P nor Q,neither expensive nor cheap,2,9,10,5,5,3,5,27642,9,3,"Thank you! I wish you well with your research!
"
AC4LBMA5QJJ1I:3TEM0PF1Q6502U90MC02ICHTXDCD0L,1460388118782,English,5,fast,car,stage,extremely slow,extremely fast,P,fast,not-Q,not slow,neither P nor Q,neither fast nor slow,Q,slow,neither Q nor not-Q,neither slow nor not slow,neither P nor not-P,neither fast nor not fast,not-P ,not fast,9,8,5,2,5,5,3,17561,9,3,"Thank you! I wish you well with your research!
"
AC4LBMA5QJJ1I:3TEM0PF1Q6502U90MC02ICHTXDCD0L,1460388143138,English,6,tall,US male,individual,extremely short,extremely tall,not-P ,not tall,neither P nor Q,neither tall nor short,Q,short,P,tall,neither P nor not-P,neither tall nor not tall,not-Q,not short,neither Q nor not-Q,neither short nor not short,5,6,2,9,6,8,5,24338,9,3,"Thank you! I wish you well with your research!
"
A1GXFMAC759VRM:3LQ8PUHQFM0SL5VICY8YF1WNARVHIL,1459951364066,english,1,hot,bath,stage,extremely cold,extremely hot,neither P nor not-P,neither hot nor not hot,not-Q,not cold,Q,cold,not-P ,not hot,P,hot,neither P nor Q,neither hot nor cold,neither Q nor not-Q,neither cold nor not cold,6,8,1,4,10,6,6,46986,10,6,
A1GXFMAC759VRM:3LQ8PUHQFM0SL5VICY8YF1WNARVHIL,1459951405346,english,2,tall,US male,individual,extremely short,extremely tall,neither P nor not-P,neither tall nor not tall,not-Q,not short,Q,short,not-P ,not tall,P,tall,neither P nor Q,neither tall nor short,neither Q nor not-Q,neither short nor not short,6,8,2,4,9,6,6,41265,10,6,
A1GXFMAC759VRM:3LQ8PUHQFM0SL5VICY8YF1WNARVHIL,1459951464629,english,3,expensive,laptop,individual,almost nothing,an enormous amount,neither P nor not-P,neither expensive nor not expensive,not-Q,not cheap,Q,cheap,not-P ,not expensive,P,expensive,neither P nor Q,neither expensive nor cheap,neither Q nor not-Q,neither cheap nor not cheap,6,8,2,3,9,6,6,59274,10,6,
A1GXFMAC759VRM:3LQ8PUHQFM0SL5VICY8YF1WNARVHIL,1459951506904,english,4,full,band,stage,no one,sold out,neither P nor not-P,neither full nor not full,not-Q,not empty,Q,empty,not-P ,not full,P,full,neither P nor Q,neither full nor empty,neither Q nor not-Q,neither empty nor not empty,7,8,1,4,10,6,5,42265,10,6,
A1GXFMAC759VRM:3LQ8PUHQFM0SL5VICY8YF1WNARVHIL,1459951562958,english,5,fast,car,stage,extremely slow,extremely fast,neither P nor not-P,neither fast nor not fast,not-Q,not slow,Q,slow,not-P ,not fast,P,fast,neither P nor Q,neither fast nor slow,neither Q nor not-Q,neither slow nor not slow,5,8,1,4,10,6,7,56041,10,6,
A1GXFMAC759VRM:3LQ8PUHQFM0SL5VICY8YF1WNARVHIL,1459951609321,english,6,long,movie,individual,extremely short,extremely long,neither P nor not-P,neither long nor not long,not-Q,not short,Q,short,not-P ,not long,P,long,neither P nor Q,neither long nor short,neither Q nor not-Q,neither short nor not short,6,8,2,4,9,6,6,46349,10,6,
A19TL7AJ0FB1JG:3CFJTT4SXUYVSGP6ZPMMOO7TXWQI7S,1460388124296,English,1,hot,bath,stage,extremely cold,extremely hot,P,hot,neither P nor Q,neither hot nor cold,neither Q nor not-Q,neither cold nor not cold,Q,cold,not-P ,not hot,not-Q,not cold,neither P nor not-P,neither hot nor not hot,9,6,6,2,3,9,6,30745,7,3,
A19TL7AJ0FB1JG:3CFJTT4SXUYVSGP6ZPMMOO7TXWQI7S,1460388140448,English,2,fast,car,stage,extremely slow,extremely fast,not-Q,not slow,P,fast,not-P ,not fast,Q,slow,neither P nor Q,neither fast nor slow,neither Q nor not-Q,neither slow nor not slow,neither P nor not-P,neither fast nor not fast,9,10,3,1,6,6,6,16142,7,3,
A19TL7AJ0FB1JG:3CFJTT4SXUYVSGP6ZPMMOO7TXWQI7S,1460388165878,English,3,full,band,stage,no one,sold out,P,full,neither P nor Q,neither full nor empty,not-Q,not empty,neither P nor not-P,neither full nor not full,Q,empty,not-P ,not full,neither Q nor not-Q,neither empty nor not empty,10,6,8,6,1,4,6,25423,7,3,
A19TL7AJ0FB1JG:3CFJTT4SXUYVSGP6ZPMMOO7TXWQI7S,1460388186359,English,4,long,movie,individual,extremely short,extremely long,not-P ,not long,not-Q,not short,neither Q nor not-Q,neither short nor not short,Q,short,neither P nor Q,neither long nor short,neither P nor not-P,neither long nor not long,P,long,2,9,6,1,6,6,9,20472,7,3,
A19TL7AJ0FB1JG:3CFJTT4SXUYVSGP6ZPMMOO7TXWQI7S,1460388204022,English,5,tall,US male,individual,extremely short,extremely tall,Q,short,not-Q,not short,neither P nor not-P,neither tall nor not tall,P,tall,neither P nor Q,neither tall nor short,not-P ,not tall,neither Q nor not-Q,neither short nor not short,2,9,6,10,6,3,6,17656,7,3,
A19TL7AJ0FB1JG:3CFJTT4SXUYVSGP6ZPMMOO7TXWQI7S,1460388220957,English,6,expensive,laptop,individual,almost nothing,an enormous amount,neither Q nor not-Q,neither cheap nor not cheap,neither P nor Q,neither expensive nor cheap,P,expensive,Q,cheap,neither P nor not-P,neither expensive nor not expensive,not-P ,not expensive,not-Q,not cheap,6,6,10,2,6,4,9,16925,7,3,
A2VBSFSJXLZZ7A:3U8YCDAGXQOUR3D5RY6MIBOSGS20QE,1460387666366,ennglish,1,hot,bath,stage,extremely cold,extremely hot,neither P nor not-P,neither hot nor not hot,not-Q,not cold,P,hot,neither Q nor not-Q,neither cold nor not cold,not-P ,not hot,neither P nor Q,neither hot nor cold,Q,cold,6,7,9,6,4,6,3,56899,7,2,
A2VBSFSJXLZZ7A:3U8YCDAGXQOUR3D5RY6MIBOSGS20QE,1460387702351,ennglish,2,expensive,laptop,individual,almost nothing,an enormous amount,neither Q nor not-Q,neither cheap nor not cheap,not-P ,not expensive,P,expensive,not-Q,not cheap,Q,cheap,neither P nor Q,neither expensive nor cheap,neither P nor not-P,neither expensive nor not expensive,6,4,9,9,3,6,7,35975,7,2,
A2VBSFSJXLZZ7A:3U8YCDAGXQOUR3D5RY6MIBOSGS20QE,1460387729142,ennglish,3,fast,car,stage,extremely slow,extremely fast,P,fast,neither P nor Q,neither fast nor slow,neither Q nor not-Q,neither slow nor not slow,not-Q,not slow,not-P ,not fast,Q,slow,neither P nor not-P,neither fast nor not fast,8,6,6,8,4,2,6,26783,7,2,
A2VBSFSJXLZZ7A:3U8YCDAGXQOUR3D5RY6MIBOSGS20QE,1460387760038,ennglish,4,long,movie,individual,extremely short,extremely long,neither P nor not-P,neither long nor not long,P,long,Q,short,not-Q,not short,neither Q nor not-Q,neither short nor not short,neither P nor Q,neither long nor short,not-P ,not long,6,8,3,8,6,6,5,30889,7,2,
A2VBSFSJXLZZ7A:3U8YCDAGXQOUR3D5RY6MIBOSGS20QE,1460387790461,ennglish,5,full,band,stage,no one,sold out,P,full,neither P nor not-P,neither full nor not full,not-Q,not empty,neither P nor Q,neither full nor empty,Q,empty,neither Q nor not-Q,neither empty nor not empty,not-P ,not full,9,6,5,6,1,6,7,30416,7,2,
A2VBSFSJXLZZ7A:3U8YCDAGXQOUR3D5RY6MIBOSGS20QE,1460387817501,ennglish,6,tall,US male,individual,extremely short,extremely tall,P,tall,neither P nor not-P,neither tall nor not tall,not-Q,not short,neither Q nor not-Q,neither short nor not short,Q,short,neither P nor Q,neither tall nor short,not-P ,not tall,9,6,7,6,4,6,5,27034,7,2,
A2UIPRZUHUN9OU:3U0SRXB7CEDXO0KC5JXKYDUAK7FRNH,1460392073183,english,1,tall,US male,individual,extremely short,extremely tall,neither Q nor not-Q,neither short nor not short,not-P ,not tall,neither P nor Q,neither tall nor short,P,tall,not-Q,not short,neither P nor not-P,neither tall nor not tall,Q,short,7,6,7,9,7,7,2,35276,8,2,No
A2UIPRZUHUN9OU:3U0SRXB7CEDXO0KC5JXKYDUAK7FRNH,1460392088041,english,2,fast,car,stage,extremely slow,extremely fast,neither P nor Q,neither fast nor slow,neither Q nor not-Q,neither slow nor not slow,P,fast,not-P ,not fast,neither P nor not-P,neither fast nor not fast,not-Q,not slow,Q,slow,6,6,9,2,6,7,2,14852,8,2,No
A2UIPRZUHUN9OU:3U0SRXB7CEDXO0KC5JXKYDUAK7FRNH,1460392102331,english,3,hot,bath,stage,extremely cold,extremely hot,not-Q,not cold,neither P nor not-P,neither hot nor not hot,P,hot,Q,cold,neither P nor Q,neither hot nor cold,not-P ,not hot,neither Q nor not-Q,neither cold nor not cold,6,6,9,2,6,5,6,14286,8,2,No
A2UIPRZUHUN9OU:3U0SRXB7CEDXO0KC5JXKYDUAK7FRNH,1460392127269,english,4,full,band,stage,no one,sold out,not-P ,not full,not-Q,not empty,neither P nor Q,neither full nor empty,neither P nor not-P,neither full nor not full,neither Q nor not-Q,neither empty nor not empty,Q,empty,P,full,5,7,6,6,6,2,9,24933,8,2,No
A2UIPRZUHUN9OU:3U0SRXB7CEDXO0KC5JXKYDUAK7FRNH,1460392146318,english,5,long,movie,individual,extremely short,extremely long,neither Q nor not-Q,neither short nor not short,P,long,not-P ,not long,neither P nor not-P,neither long nor not long,not-Q,not short,neither P nor Q,neither long nor short,Q,short,6,9,5,6,7,6,2,19045,8,2,No
A2UIPRZUHUN9OU:3U0SRXB7CEDXO0KC5JXKYDUAK7FRNH,1460392178871,english,6,expensive,laptop,individual,almost nothing,an enormous amount,neither Q nor not-Q,neither cheap nor not cheap,neither P nor Q,neither expensive nor cheap,not-P ,not expensive,neither P nor not-P,neither expensive nor not expensive,P,expensive,Q,cheap,not-Q,not cheap,6,6,3,5,9,1,10,32549,8,2,No
A1OSRB1Q63XXWZ:3XIQGXAUMDGSIBE1YBMNRYU8L9U7XH,1460388003844,english,1,expensive,laptop,individual,almost nothing,an enormous amount,neither Q nor not-Q,neither cheap nor not cheap,P,expensive,neither P nor Q,neither expensive nor cheap,neither P nor not-P,neither expensive nor not expensive,not-P ,not expensive,not-Q,not cheap,Q,cheap,5,3,4,4,4,4,4,369822,7,0,
A1OSRB1Q63XXWZ:3XIQGXAUMDGSIBE1YBMNRYU8L9U7XH,1460388030232,english,2,long,movie,individual,extremely short,extremely long,not-P ,not long,not-Q,not short,Q,short,P,long,neither P nor Q,neither long nor short,neither Q nor not-Q,neither short nor not short,neither P nor not-P,neither long nor not long,6,6,6,6,6,5,5,26362,7,0,
A1OSRB1Q63XXWZ:3XIQGXAUMDGSIBE1YBMNRYU8L9U7XH,1460388062360,english,3,tall,US male,individual,extremely short,extremely tall,not-P ,not tall,neither Q nor not-Q,neither short nor not short,neither P nor not-P,neither tall nor not tall,not-Q,not short,P,tall,neither P nor Q,neither tall nor short,Q,short,7,6,6,5,7,7,6,32097,7,0,
A1OSRB1Q63XXWZ:3XIQGXAUMDGSIBE1YBMNRYU8L9U7XH,1460388096439,english,4,hot,bath,stage,extremely cold,extremely hot,P,hot,not-P ,not hot,Q,cold,neither Q nor not-Q,neither cold nor not cold,neither P nor Q,neither hot nor cold,neither P nor not-P,neither hot nor not hot,not-Q,not cold,7,6,7,7,7,7,7,34046,7,0,
A1OSRB1Q63XXWZ:3XIQGXAUMDGSIBE1YBMNRYU8L9U7XH,1460388133814,english,5,full,band,stage,no one,sold out,neither P nor not-P,neither full nor not full,P,full,not-P ,not full,not-Q,not empty,Q,empty,neither Q nor not-Q,neither empty nor not empty,neither P nor Q,neither full nor empty,7,8,5,5,5,6,6,37349,7,0,
A1OSRB1Q63XXWZ:3XIQGXAUMDGSIBE1YBMNRYU8L9U7XH,1460388162356,english,6,fast,car,stage,extremely slow,extremely fast,neither P nor not-P,neither fast nor not fast,Q,slow,neither Q nor not-Q,neither slow nor not slow,not-Q,not slow,P,fast,neither P nor Q,neither fast nor slow,not-P ,not fast,7,5,6,6,6,5,6,28518,7,0,
A1TLNLB9D87H6:3QY7M81QH8UMYBFUZS7Y14M6OSP7KL,1459949220203,English,1,long,movie,individual,extremely short,extremely long,neither Q nor not-Q,neither short nor not short,Q,short,neither P nor not-P,neither long nor not long,P,long,neither P nor Q,neither long nor short,not-P ,not long,not-Q,not short,6,1,6,10,6,3,8,25456,10,3,
A1TLNLB9D87H6:3QY7M81QH8UMYBFUZS7Y14M6OSP7KL,1459949239830,English,2,expensive,laptop,individual,almost nothing,an enormous amount,neither Q nor not-Q,neither cheap nor not cheap,Q,cheap,neither P nor not-P,neither expensive nor not expensive,P,expensive,neither P nor Q,neither expensive nor cheap,not-P ,not expensive,not-Q,not cheap,6,3,6,10,6,3,8,19605,10,3,
A1TLNLB9D87H6:3QY7M81QH8UMYBFUZS7Y14M6OSP7KL,1459949257363,English,3,tall,US male,individual,extremely short,extremely tall,neither Q nor not-Q,neither short nor not short,Q,short,neither P nor not-P,neither tall nor not tall,P,tall,neither P nor Q,neither tall nor short,not-P ,not tall,not-Q,not short,6,4,6,8,6,3,8,17516,10,3,
A1TLNLB9D87H6:3QY7M81QH8UMYBFUZS7Y14M6OSP7KL,1459949285597,English,4,hot,bath,stage,extremely cold,extremely hot,neither Q nor not-Q,neither cold nor not cold,Q,cold,neither P nor not-P,neither hot nor not hot,P,hot,neither P nor Q,neither hot nor cold,not-P ,not hot,not-Q,not cold,6,3,6,9,5,3,8,28221,10,3,
A1TLNLB9D87H6:3QY7M81QH8UMYBFUZS7Y14M6OSP7KL,1459949296977,English,5,fast,car,stage,extremely slow,extremely fast,neither Q nor not-Q,neither slow nor not slow,Q,slow,neither P nor not-P,neither fast nor not fast,P,fast,neither P nor Q,neither fast nor slow,not-P ,not fast,not-Q,not slow,6,3,6,8,6,3,8,11365,10,3,
A1TLNLB9D87H6:3QY7M81QH8UMYBFUZS7Y14M6OSP7KL,1459949327695,English,6,full,band,stage,no one,sold out,neither Q nor not-Q,neither empty nor not empty,Q,empty,neither P nor not-P,neither full nor not full,P,full,neither P nor Q,neither full nor empty,not-P ,not full,not-Q,not empty,6,1,6,10,6,4,8,30697,10,3,
A2HHKBW8HQWI66:3WLEIWSYHPPOAKHGNVN6SLP6LVZ2HW,1459949432147,English,1,long,movie,individual,extremely short,extremely long,not-P ,not long,P,long,neither P nor Q,neither long nor short,Q,short,neither Q nor not-Q,neither short nor not short,not-Q,not short,neither P nor not-P,neither long nor not long,4,8,6,3,4,9,5,181453,8,0,None
A2HHKBW8HQWI66:3WLEIWSYHPPOAKHGNVN6SLP6LVZ2HW,1459949663437,English,2,full,band,stage,no one,sold out,not-P ,not full,P,full,neither P nor Q,neither full nor empty,Q,empty,neither Q nor not-Q,neither empty nor not empty,not-Q,not empty,neither P nor not-P,neither full nor not full,4,10,6,1,4,7,5,231290,8,0,None
A2HHKBW8HQWI66:3WLEIWSYHPPOAKHGNVN6SLP6LVZ2HW,1459949726652,English,3,hot,bath,stage,extremely cold,extremely hot,not-P ,not hot,P,hot,neither P nor Q,neither hot nor cold,Q,cold,neither Q nor not-Q,neither cold nor not cold,not-Q,not cold,neither P nor not-P,neither hot nor not hot,5,9,6,1,6,8,7,63213,8,0,None
A2HHKBW8HQWI66:3WLEIWSYHPPOAKHGNVN6SLP6LVZ2HW,1459949845335,English,4,fast,car,stage,extremely slow,extremely fast,not-P ,not fast,P,fast,neither P nor Q,neither fast nor slow,Q,slow,neither Q nor not-Q,neither slow nor not slow,not-Q,not slow,neither P nor not-P,neither fast nor not fast,4,9,6,2,7,9,6,118679,8,0,None
A2HHKBW8HQWI66:3WLEIWSYHPPOAKHGNVN6SLP6LVZ2HW,1459949956656,English,5,expensive,laptop,individual,almost nothing,an enormous amount,not-P ,not expensive,P,expensive,neither P nor Q,neither expensive nor cheap,Q,cheap,neither Q nor not-Q,neither cheap nor not cheap,not-Q,not cheap,neither P nor not-P,neither expensive nor not expensive,3,10,6,2,6,9,6,111297,8,0,None
A2HHKBW8HQWI66:3WLEIWSYHPPOAKHGNVN6SLP6LVZ2HW,1459950013541,English,6,tall,US male,individual,extremely short,extremely tall,not-P ,not tall,P,tall,neither P nor Q,neither tall nor short,Q,short,neither Q nor not-Q,neither short nor not short,not-Q,not short,neither P nor not-P,neither tall nor not tall,3,8,6,2,6,9,6,56863,8,0,None
AAXYYH9MI3PJM:3EQHHY4HQT029L5SL87M5SGHRD3G5J,1460388014069,english,1,hot,bath,stage,extremely cold,extremely hot,not-P ,not hot,not-Q,not cold,neither P nor not-P,neither hot nor not hot,Q,cold,neither P nor Q,neither hot nor cold,P,hot,neither Q nor not-Q,neither cold nor not cold,5,7,6,3,6,8,6,24606,7,5,
AAXYYH9MI3PJM:3EQHHY4HQT029L5SL87M5SGHRD3G5J,1460388040873,english,2,full,band,stage,no one,sold out,neither Q nor not-Q,neither empty nor not empty,neither P nor Q,neither full nor empty,not-Q,not empty,P,full,not-P ,not full,neither P nor not-P,neither full nor not full,Q,empty,6,6,8,9,3,6,1,26786,7,5,
AAXYYH9MI3PJM:3EQHHY4HQT029L5SL87M5SGHRD3G5J,1460388066964,english,3,fast,car,stage,extremely slow,extremely fast,not-Q,not slow,neither P nor not-P,neither fast nor not fast,neither P nor Q,neither fast nor slow,Q,slow,neither Q nor not-Q,neither slow nor not slow,P,fast,not-P ,not fast,5,6,6,3,6,8,3,26074,7,5,
AAXYYH9MI3PJM:3EQHHY4HQT029L5SL87M5SGHRD3G5J,1460388093296,english,4,expensive,laptop,individual,almost nothing,an enormous amount,Q,cheap,neither Q nor not-Q,neither cheap nor not cheap,not-Q,not cheap,P,expensive,neither P nor Q,neither expensive nor cheap,neither P nor not-P,neither expensive nor not expensive,not-P ,not expensive,3,7,8,9,6,7,3,26315,7,5,
AAXYYH9MI3PJM:3EQHHY4HQT029L5SL87M5SGHRD3G5J,1460388119801,english,5,tall,US male,individual,extremely short,extremely tall,neither P nor Q,neither tall nor short,Q,short,not-Q,not short,neither P nor not-P,neither tall nor not tall,P,tall,neither Q nor not-Q,neither short nor not short,not-P ,not tall,6,2,6,6,8,6,4,26487,7,5,
AAXYYH9MI3PJM:3EQHHY4HQT029L5SL87M5SGHRD3G5J,1460388135124,english,6,long,movie,individual,extremely short,extremely long,neither Q nor not-Q,neither short nor not short,neither P nor not-P,neither long nor not long,neither P nor Q,neither long nor short,not-Q,not short,P,long,not-P ,not long,Q,short,6,6,6,7,9,3,2,15305,7,5,
AFN5VMMGYPF1I:3LOZAJ85YELLWAHVSZ5SV7D09LHX2J,1459950480192,english,1,hot,bath,stage,extremely cold,extremely hot,P,hot,neither P nor Q,neither hot nor cold,neither P nor not-P,neither hot nor not hot,not-Q,not cold,neither Q nor not-Q,neither cold nor not cold,Q,cold,not-P ,not hot,8,5,7,6,4,3,6,45696,8,2,Enjoyed the survey
AFN5VMMGYPF1I:3LOZAJ85YELLWAHVSZ5SV7D09LHX2J,1459950533719,english,2,full,band,stage,no one,sold out,P,full,neither P nor Q,neither full nor empty,neither P nor not-P,neither full nor not full,not-Q,not empty,neither Q nor not-Q,neither empty nor not empty,Q,empty,not-P ,not full,9,5,7,4,4,1,6,53500,8,2,Enjoyed the survey
AFN5VMMGYPF1I:3LOZAJ85YELLWAHVSZ5SV7D09LHX2J,1459950564454,english,3,expensive,laptop,individual,almost nothing,an enormous amount,P,expensive,neither P nor Q,neither expensive nor cheap,neither P nor not-P,neither expensive nor not expensive,not-Q,not cheap,neither Q nor not-Q,neither cheap nor not cheap,Q,cheap,not-P ,not expensive,9,5,6,8,4,3,4,30721,8,2,Enjoyed the survey
AFN5VMMGYPF1I:3LOZAJ85YELLWAHVSZ5SV7D09LHX2J,1459950594821,english,4,tall,US male,individual,extremely short,extremely tall,P,tall,neither P nor Q,neither tall nor short,neither P nor not-P,neither tall nor not tall,not-Q,not short,neither Q nor not-Q,neither short nor not short,Q,short,not-P ,not tall,8,6,6,8,4,3,5,30354,8,2,Enjoyed the survey
AFN5VMMGYPF1I:3LOZAJ85YELLWAHVSZ5SV7D09LHX2J,1459950629109,english,5,fast,car,stage,extremely slow,extremely fast,P,fast,neither P nor Q,neither fast nor slow,neither P nor not-P,neither fast nor not fast,not-Q,not slow,neither Q nor not-Q,neither slow nor not slow,Q,slow,not-P ,not fast,9,5,7,7,3,2,5,34275,8,2,Enjoyed the survey
AFN5VMMGYPF1I:3LOZAJ85YELLWAHVSZ5SV7D09LHX2J,1459950654141,english,6,long,movie,individual,extremely short,extremely long,P,long,neither P nor Q,neither long nor short,neither P nor not-P,neither long nor not long,not-Q,not short,neither Q nor not-Q,neither short nor not short,Q,short,not-P ,not long,9,6,7,4,3,2,5,25018,8,2,Enjoyed the survey
AVJUIF9QHQRY8:3NVC2EB65R7ZHX3O1V5ZXVP1ID2Y39,1460387533958,english,1,hot,bath,stage,extremely cold,extremely hot,Q,cold,neither P nor not-P,neither hot nor not hot,neither P nor Q,neither hot nor cold,not-P ,not hot,neither Q nor not-Q,neither cold nor not cold,not-Q,not cold,P,hot,2,6,6,4,4,8,9,75099,8,2,Enjoyed the survey
AVJUIF9QHQRY8:3NVC2EB65R7ZHX3O1V5ZXVP1ID2Y39,1460387560911,english,2,expensive,laptop,individual,almost nothing,an enormous amount,neither P nor not-P,neither expensive nor not expensive,neither Q nor not-Q,neither cheap nor not cheap,not-P ,not expensive,Q,cheap,P,expensive,not-Q,not cheap,neither P nor Q,neither expensive nor cheap,6,6,3,2,9,8,6,26944,8,2,Enjoyed the survey
AVJUIF9QHQRY8:3NVC2EB65R7ZHX3O1V5ZXVP1ID2Y39,1460387581175,english,3,long,movie,individual,extremely short,extremely long,not-Q,not short,not-P ,not long,P,long,neither Q nor not-Q,neither short nor not short,neither P nor not-P,neither long nor not long,Q,short,neither P nor Q,neither long nor short,8,3,9,6,6,2,6,20258,8,2,Enjoyed the survey
AVJUIF9QHQRY8:3NVC2EB65R7ZHX3O1V5ZXVP1ID2Y39,1460387605764,english,4,tall,US male,individual,extremely short,extremely tall,not-P ,not tall,neither P nor Q,neither tall nor short,P,tall,not-Q,not short,neither P nor not-P,neither tall nor not tall,neither Q nor not-Q,neither short nor not short,Q,short,4,6,9,8,6,5,2,24583,8,2,Enjoyed the survey
AVJUIF9QHQRY8:3NVC2EB65R7ZHX3O1V5ZXVP1ID2Y39,1460387630682,english,5,full,band,stage,no one,sold out,not-Q,not empty,neither P nor not-P,neither full nor not full,not-P ,not full,P,full,neither Q nor not-Q,neither empty nor not empty,neither P nor Q,neither full nor empty,Q,empty,7,6,5,10,5,6,1,24912,8,2,Enjoyed the survey
AVJUIF9QHQRY8:3NVC2EB65R7ZHX3O1V5ZXVP1ID2Y39,1460387648614,english,6,fast,car,stage,extremely slow,extremely fast,neither P nor Q,neither fast nor slow,not-Q,not slow,not-P ,not fast,P,fast,neither Q nor not-Q,neither slow nor not slow,Q,slow,neither P nor not-P,neither fast nor not fast,6,8,3,10,6,1,6,17925,8,2,Enjoyed the survey
A1JZA7GK8ZER71:3SKRO2GZ72Z8NP0SACQP0UVTL6OK10,1459949193847,english,1,full,band,stage,no one,sold out,neither P nor Q,neither full nor empty,neither Q nor not-Q,neither empty nor not empty,Q,empty,neither P nor not-P,neither full nor not full,P,full,not-P ,not full,not-Q,not empty,6,6,1,6,10,8,4,28185,8,2,Enjoyed the survey
A1JZA7GK8ZER71:3SKRO2GZ72Z8NP0SACQP0UVTL6OK10,1459949212557,english,2,fast,car,stage,extremely slow,extremely fast,neither P nor Q,neither fast nor slow,neither Q nor not-Q,neither slow nor not slow,Q,slow,neither P nor not-P,neither fast nor not fast,P,fast,not-P ,not fast,not-Q,not slow,6,6,2,6,10,5,8,18689,8,2,Enjoyed the survey
A1JZA7GK8ZER71:3SKRO2GZ72Z8NP0SACQP0UVTL6OK10,1459949225751,english,3,expensive,laptop,individual,almost nothing,an enormous amount,neither P nor Q,neither expensive nor cheap,neither Q nor not-Q,neither cheap nor not cheap,Q,cheap,neither P nor not-P,neither expensive nor not expensive,P,expensive,not-P ,not expensive,not-Q,not cheap,6,6,1,6,8,4,6,13178,8,2,Enjoyed the survey
A1JZA7GK8ZER71:3SKRO2GZ72Z8NP0SACQP0UVTL6OK10,1459949246148,english,4,tall,US male,individual,extremely short,extremely tall,neither P nor Q,neither tall nor short,neither Q nor not-Q,neither short nor not short,Q,short,neither P nor not-P,neither tall nor not tall,P,tall,not-P ,not tall,not-Q,not short,6,8,6,6,8,4,7,20382,8,2,Enjoyed the survey
A1JZA7GK8ZER71:3SKRO2GZ72Z8NP0SACQP0UVTL6OK10,1459949258211,english,5,hot,bath,stage,extremely cold,extremely hot,neither P nor Q,neither hot nor cold,neither Q nor not-Q,neither cold nor not cold,Q,cold,neither P nor not-P,neither hot nor not hot,P,hot,not-P ,not hot,not-Q,not cold,8,4,7,7,5,5,7,12046,8,2,Enjoyed the survey
A1JZA7GK8ZER71:3SKRO2GZ72Z8NP0SACQP0UVTL6OK10,1459949285003,english,6,long,movie,individual,extremely short,extremely long,neither P nor Q,neither long nor short,neither Q nor not-Q,neither short nor not short,Q,short,neither P nor not-P,neither long nor not long,P,long,not-P ,not long,not-Q,not short,7,6,1,6,10,4,8,26774,8,2,Enjoyed the survey
A195MOXRMNHRVT:3YDGXNSEO025KNVAO5CO8NT53YV84Q,1460389197787,english,1,fast,car,stage,extremely slow,extremely fast,not-Q,not slow,neither P nor not-P,neither fast nor not fast,neither P nor Q,neither fast nor slow,neither Q nor not-Q,neither slow nor not slow,Q,slow,P,fast,not-P ,not fast,6,6,6,6,3,8,3,63978,8,2,Enjoyed the survey
A195MOXRMNHRVT:3YDGXNSEO025KNVAO5CO8NT53YV84Q,1460389251097,english,2,expensive,laptop,individual,almost nothing,an enormous amount,not-P ,not expensive,neither P nor not-P,neither expensive nor not expensive,P,expensive,Q,cheap,not-Q,not cheap,neither Q nor not-Q,neither cheap nor not cheap,neither P nor Q,neither expensive nor cheap,4,6,8,4,8,6,6,53283,8,2,Enjoyed the survey
A195MOXRMNHRVT:3YDGXNSEO025KNVAO5CO8NT53YV84Q,1460389286355,english,3,long,movie,individual,extremely short,extremely long,neither Q nor not-Q,neither short nor not short,Q,short,neither P nor not-P,neither long nor not long,not-P ,not long,P,long,not-Q,not short,neither P nor Q,neither long nor short,6,5,6,4,8,7,6,35234,8,2,Enjoyed the survey
A195MOXRMNHRVT:3YDGXNSEO025KNVAO5CO8NT53YV84Q,1460389326624,english,4,tall,US male,individual,extremely short,extremely tall,not-P ,not tall,Q,short,neither Q nor not-Q,neither short nor not short,neither P nor Q,neither tall nor short,neither P nor not-P,neither tall nor not tall,P,tall,not-Q,not short,5,5,7,6,6,8,7,40242,8,2,Enjoyed the survey
A195MOXRMNHRVT:3YDGXNSEO025KNVAO5CO8NT53YV84Q,1460389376256,english,5,full,band,stage,no one,sold out,Q,empty,neither P nor Q,neither full nor empty,not-P ,not full,neither Q nor not-Q,neither empty nor not empty,neither P nor not-P,neither full nor not full,not-Q,not empty,P,full,3,5,6,4,4,4,8,49606,8,2,Enjoyed the survey
A195MOXRMNHRVT:3YDGXNSEO025KNVAO5CO8NT53YV84Q,1460389422430,english,6,hot,bath,stage,extremely cold,extremely hot,P,hot,neither P nor not-P,neither hot nor not hot,not-P ,not hot,neither Q nor not-Q,neither cold nor not cold,Q,cold,neither P nor Q,neither hot nor cold,not-Q,not cold,8,6,6,6,4,6,7,46151,8,2,Enjoyed the survey
